Folder: SUMMER-JOB-2024-MATERIALS-PHYSICS/EXPERIMENTAL-DATA/Cycling-data-Master-thesis/I-cell

Note: EXPERIMENTAL-DATA/Cycling-data-Master-thesis/I-cell/2024-04-24_JP-measurements_sample-A4-01_M-cell_Cu-Li-Cellgard2400-separator_25muL-LiFSI-in-DME_outside-glovebox_sigma-0.02_added-OCV-0.1s_Deltax110.4mm_01_OCV_C11.txt
time/s	<Ewe/V>	error	
9.999999747378752E+000	2.8474000E+000	0
1.999999949475750E+001	2.8464870E+000	0
2.999999924213625E+001	2.8454967E+000	0
3.999999898951501E+001	2.8445060E+000	0
4.999999873689376E+001	2.8436480E+000	0
5.999979848427756E+001	2.8428116E+000	0

Note: EXPERIMENTAL-DATA/Cycling-data-Master-thesis/I-cell/2024-04-24_JP-measurements_sample-A6-01_M-cell_Cu-Li-Cellgard2400-separator_25muL-LiFSI-in-DME_outside-glovebox_sigma-0.02_added-OCV-0.1s_Deltax110.3mm_01_OCV_C11.txt
time/s	<Ewe/V>	error	
9.999999747378752E+000	2.7531250E+000	0
1.999999949475750E+001	2.7527421E+000	0
2.999999924213625E+001	2.7523663E+000	0
3.999999898951501E+001	2.7519958E+000	0
4.999999873689376E+001	2.7516377E+000	0
5.999979848427756E+001	2.7512748E+000	0

File: 2024-04-24_JP-measurements_sample-A4-01_M-cell_Cu-Li-Cellgard2400-separator_25muL-LiFSI-in-DME_outside-glovebox_sigma-0.02_added-OCV-0.1s_Deltax110.4mm_04_CP_C11.txt
time/s	Ewe/V	I/mA	error
3961.45	0.00834288	-0.019471	0
3961.49	-3.37559e-05	-0.0195951	0
3961.56	-0.00722985	-0.0195932	0
3961.65	-0.014655	-0.0195945	0
3961.76	-0.0220229	-0.0195862	0
3961.87	-0.0293526	-0.0195875	0
3962	-0.0367205	-0.0195913	0
3962.15	-0.0441075	-0.0195964	0
3962.31	-0.0513417	-0.0195862	0
3962.49	-0.0585951	-0.0195951	0
3962.7	-0.0657721	-0.0195945	0
3962.94	-0.0729682	-0.01959	0
3963.25	-0.0802216	-0.0195894	0
3963.74	-0.0874558	-0.0195925	0
3964.95	-0.0843445	-0.01959	0
3965.45	-0.0771675	-0.01959	0
3965.97	-0.0699142	-0.0195881	0
3966.66	-0.0627753	-0.0195875	0
3967.83	-0.0556365	-0.0195919	0
3970.12	-0.0484022	-0.0195881	0
3985.83	-0.0412825	-0.0195945	0
4046.43	-0.035518	-0.0195945	0
4116.43	-0.0324066	-0.0195875	0
4186.43	-0.0307269	-0.0195964	0
4256.43	-0.0293335	-0.0196002	0
4326.43	-0.0284555	-0.0195945	0
4396.43	-0.027692	-0.0195862	0
4466.43	-0.0271957	-0.0195925	0
4536.43	-0.0268903	-0.0195913	0
4606.43	-0.0263558	-0.0195983	0
4676.43	-0.0259359	-0.0195957	0
4746.43	-0.0257641	-0.019597	0
4816.43	-0.025516	-0.0195957	0
4886.43	-0.0251342	-0.0195945	0
4956.43	-0.0250578	-0.0195938	0
5026.43	-0.0249815	-0.0195862	0
5096.43	-0.0247334	-0.0195938	0
5166.43	-0.0245807	-0.0196002	0
5236.43	-0.0245997	-0.0195862	0
5306.43	-0.024447	-0.0195925	0
5376.43	-0.0242943	-0.0195989	0
5446.43	-0.0242562	-0.0195951	0
5492.18	-0.02313	-0.0195868	0
5552.9	-0.0241416	-0.0195932	0
5622.9	-0.0240271	-0.0195945	0
5692.9	-0.0239698	-0.0195932	0
5762.9	-0.0238935	-0.0195938	0
5832.9	-0.0237026	-0.0196021	0
5902.9	-0.023779	-0.0195938	0
5972.9	-0.0236644	-0.0195989	0
6042.9	-0.0235881	-0.0195932	0
6112.9	-0.0236263	-0.0195938	0
6182.9	-0.0234736	-0.0195983	0
6252.9	-0.0234926	-0.0195862	0
6322.9	-0.0234354	-0.0195919	0
6392.9	-0.0233972	-0.0195932	0
6462.9	-0.0232636	-0.0195868	0
6532.9	-0.0233399	-0.0195964	0
6602.9	-0.0233972	-0.0195932	0
6672.9	-0.0231872	-0.0195957	0
6742.9	-0.0233018	-0.0195925	0
6812.9	-0.0233209	-0.0195932	0
6882.9	-0.02313	-0.0195919	0
6952.9	-0.0231109	-0.0195919	0
7022.9	-0.0232254	-0.01959	0
7092.9	-0.0231109	-0.0195951	0
7162.9	-0.02313	-0.0195881	0
7232.9	-0.0229773	-0.0195919	0
7302.9	-0.0229964	-0.0195945	0
7372.9	-0.02292	-0.0195906	0
7442.9	-0.0229773	-0.0195925	0
7512.9	-0.0228818	-0.0195913	0
7582.9	-0.0228055	-0.0195906	0
7652.9	-0.0228055	-0.0195976	0
7722.9	-0.0228818	-0.0195964	0
7792.9	-0.0228246	-0.0195976	0
7862.9	-0.0228437	-0.0195932	0
7932.9	-0.0229391	-0.0195894	0
8002.9	-0.0228055	-0.0195976	0
8072.9	-0.0228055	-0.0195868	0
8142.9	-0.0228246	-0.0195964	0
8212.9	-0.0228246	-0.0195957	0
8282.9	-0.0227864	-0.0195957	0
8352.9	-0.0228437	-0.0195932	0
8422.9	-0.0227673	-0.0195855	0
8492.9	-0.0227864	-0.0195906	0
8562.9	-0.0227101	-0.0195995	0
8632.9	-0.0227673	-0.0195932	0
8702.9	-0.022691	-0.0195976	0
8772.9	-0.022691	-0.0195938	0
8842.9	-0.0226146	-0.0195868	0
8912.9	-0.022691	-0.0195925	0
8982.9	-0.0226719	-0.0195913	0
9052.9	-0.0227101	-0.0195913	0
9122.9	-0.0227101	-0.0196002	0
9192.9	-0.022691	-0.0195957	0
9262.9	-0.0226528	-0.0195989	0
9332.9	-0.0226146	-0.0196002	0
9402.9	-0.0225383	-0.01959	0
9472.9	-0.0225573	-0.0196008	0
9542.9	-0.0226146	-0.0195951	0
9612.9	-0.0226146	-0.01959	0
9682.9	-0.0225192	-0.0195976	0
9752.9	-0.0225192	-0.0195919	0
9822.9	-0.0225383	-0.0195906	0
9892.9	-0.0224237	-0.0195983	0
9962.9	-0.0225573	-0.0195913	0
10032.9	-0.0225383	-0.0195945	0
10102.9	-0.0225955	-0.0195855	0
10172.9	-0.0225001	-0.0195983	0
10242.9	-0.0225573	-0.0195951	0
10312.9	-0.0223665	-0.0195925	0
10382.9	-0.0224619	-0.0195925	0
10452.9	-0.0224619	-0.0195938	0
10522.9	-0.0223665	-0.0195983	0
10592.9	-0.0225001	-0.0195964	0
10662.9	-0.0224046	-0.0195964	0
10732.9	-0.0222901	-0.0195919	0
10802.9	-0.0224237	-0.0195976	0
10872.9	-0.0223474	-0.0195989	0
10942.9	-0.022271	-0.0195906	0
11012.9	-0.0223665	-0.0195887	0
11082.9	-0.0223283	-0.0195957	0
11152.9	-0.0221947	-0.0195951	0
11222.9	-0.0223092	-0.0195964	0
11292.9	-0.0222519	-0.0195855	0
11362.9	-0.0224428	-0.0196014	0
11432.9	-0.0221947	-0.01959	0
11502.9	-0.0223092	-0.0195995	0
11572.9	-0.0222901	-0.0195913	0
11642.9	-0.0220992	-0.0195976	0
11712.9	-0.0221756	-0.0195862	0
11782.9	-0.022271	-0.0195983	0
11852.9	-0.0222138	-0.0195983	0
11922.9	-0.0223283	-0.0195957	0
11992.9	-0.0223092	-0.0195964	0
12062.9	-0.0223092	-0.0195925	0
12132.9	-0.0223665	-0.019597	0
12202.9	-0.0223474	-0.0195989	0
12272.9	-0.0222519	-0.0195938	0
12342.9	-0.022271	-0.0195887	0
12412.9	-0.0222329	-0.0195938	0
12482.9	-0.022271	-0.0195964	0
12552.9	-0.0222901	-0.0195925	0
12622.9	-0.0221565	-0.0196002	0
12692.9	-0.0222329	-0.0195906	0
12762.9	-0.0221183	-0.0196021	0
12832.9	-0.0221374	-0.0195976	0
12902.9	-0.0221183	-0.0195989	0
12972.9	-0.0221374	-0.0195951	0
13042.9	-0.0220992	-0.0195932	0
13112.9	-0.0221183	-0.0195919	0
13182.9	-0.0221756	-0.019597	0
13252.9	-0.0220992	-0.0195957	0
13322.9	-0.0220802	-0.0195919	0
13392.9	-0.0220611	-0.0195925	0
13462.9	-0.0220611	-0.0195951	0
13532.9	-0.0220802	-0.0195925	0
13602.9	-0.0220802	-0.0195951	0
13672.9	-0.0221183	-0.0195945	0
13742.9	-0.0221374	-0.0195938	0
13812.9	-0.022042	-0.0195951	0
13882.9	-0.0220229	-0.0195938	0
13952.9	-0.0222329	-0.0195894	0
14022.9	-0.0220802	-0.0196014	0
14092.9	-0.0221183	-0.0195932	0
14162.9	-0.0220229	-0.0195925	0
14232.9	-0.0221183	-0.0195919	0
14302.9	-0.0221565	-0.0195951	0
14372.9	-0.0220611	-0.0195976	0
14442.9	-0.0222138	-0.0195919	0
14512.9	-0.0220229	-0.0195932	0
14582.9	-0.0221374	-0.0195925	0
14652.9	-0.0220802	-0.0195964	0
14722.9	-0.0221756	-0.0195964	0
14792.9	-0.0220802	-0.0195894	0
14862.9	-0.0220992	-0.0195964	0
14932.9	-0.0219847	-0.0195919	0
15002.9	-0.0219847	-0.0195919	0
15072.9	-0.0220229	-0.0195983	0
15142.9	-0.0220611	-0.0195938	0
15212.9	-0.0220229	-0.0195887	0
15282.9	-0.0219465	-0.0195957	0
15352.9	-0.0220802	-0.0195906	0
15422.9	-0.0220992	-0.0195964	0
15492.9	-0.022042	-0.0195964	0
15562.9	-0.0220229	-0.0195951	0
15632.9	-0.0219465	-0.0195945	0
15702.9	-0.0220802	-0.019597	0
15772.9	-0.0219275	-0.0195913	0
15842.9	-0.0219847	-0.0195932	0
15912.9	-0.0218129	-0.0195957	0
15982.9	-0.0219465	-0.0195868	0
16052.9	-0.0219656	-0.0195945	0
16122.9	-0.0220038	-0.0196014	0
16192.9	-0.0219656	-0.019597	0
16262.9	-0.0220611	-0.0195964	0
16332.9	-0.0219656	-0.0195957	0
16402.9	-0.0219656	-0.0195938	0
16472.9	-0.0218702	-0.0195989	0
16542.9	-0.0219656	-0.0195913	0
16612.9	-0.0219084	-0.0195906	0
16682.9	-0.0219275	-0.0195976	0
16752.9	-0.0218893	-0.0195976	0
16822.9	-0.0219656	-0.01959	0
16892.9	-0.0220229	-0.0195951	0
16962.9	-0.0219275	-0.019597	0
17032.9	-0.0219847	-0.019597	0
17102.9	-0.0218511	-0.0195913	0
17172.9	-0.0219084	-0.01959	0
17242.9	-0.0217747	-0.0195951	0
17312.9	-0.0217747	-0.0195906	0
17382.9	-0.0218702	-0.0196002	0
17452.9	-0.0217938	-0.019597	0
17522.9	-0.0218129	-0.0195951	0
17592.9	-0.0218893	-0.019597	0
17662.9	-0.0218702	-0.0195938	0
17732.9	-0.0218893	-0.0195938	0
17802.9	-0.0217366	-0.0195925	0
17872.9	-0.0216984	-0.0195995	0
17942.9	-0.0218511	-0.0195945	0
18012.9	-0.0216984	-0.0196034	0
18082.9	-0.0218511	-0.0195894	0
18152.9	-0.0217175	-0.0195951	0
18222.9	-0.0217938	-0.0195945	0
18292.9	-0.0216793	-0.0195938	0
18362.9	-0.0217557	-0.0195976	0
18432.9	-0.0217747	-0.0195951	0
18502.9	-0.021622	-0.0195945	0
18572.9	-0.0217938	-0.0195957	0
18642.9	-0.0217557	-0.0195989	0
18712.9	-0.0216793	-0.0195983	0
18782.9	-0.0215266	-0.0195919	0
18852.9	-0.0216602	-0.0195925	0
18922.9	-0.0216793	-0.0195913	0
18992.9	-0.0216984	-0.0195925	0
19062.9	-0.0214884	-0.0195913	0
19132.9	-0.0216984	-0.0195906	0
19202.9	-0.0217175	-0.0195964	0
19272.9	-0.0217175	-0.019597	0
19342.9	-0.0215839	-0.0195881	0
19412.9	-0.0216602	-0.0195989	0
19482.9	-0.0216411	-0.0195919	0
19552.9	-0.021622	-0.01959	0
19622.9	-0.0216411	-0.0195932	0
19692.9	-0.0214884	-0.0195938	0
19762.9	-0.021622	-0.0195894	0
19832.9	-0.0215839	-0.0195887	0
19902.9	-0.0217175	-0.0195957	0
19972.9	-0.0214503	-0.0195938	0
20042.9	-0.021603	-0.0195945	0
20112.9	-0.0215457	-0.0195925	0
20182.9	-0.0214503	-0.0195932	0
20252.9	-0.0215839	-0.0195925	0
20322.9	-0.021603	-0.0195951	0
20392.9	-0.021603	-0.0195989	0
20462.9	-0.0214884	-0.019597	0
20532.9	-0.0214693	-0.0195976	0
20602.9	-0.0214884	-0.0196014	0
20672.9	-0.0214884	-0.0196008	0
20742.9	-0.0214693	-0.0195913	0
20812.9	-0.0214121	-0.0195932	0
20882.9	-0.0215457	-0.0195938	0
20952.9	-0.0214503	-0.0195976	0
21022.9	-0.0215266	-0.0195906	0
21092.9	-0.0215075	-0.019597	0
21162.9	-0.0213357	-0.0195894	0
21232.9	-0.0215266	-0.0195919	0
21302.9	-0.0214884	-0.0195951	0
21372.9	-0.0214121	-0.0195887	0
21442.9	-0.021393	-0.019597	0
21512.9	-0.021393	-0.0195919	0
21582.9	-0.0214884	-0.0196008	0
21652.9	-0.0213548	-0.0195932	0
21722.9	-0.0215075	-0.0195957	0
21792.9	-0.0213739	-0.0195913	0
21862.9	-0.0214503	-0.0195925	0
21932.9	-0.0212403	-0.0195983	0
21961.4	-0.0214312	-0.0195932	0

File: 2024-04-24_JP-measurements_sample-A5-01_M-cell_Cu-Li-Cellgard2400-separator_25muL-LiFSI-in-DME_outside-glovebox_sigma-0.02_added-OCV-0.1s_Deltax110.3mm_04_CP_C10.txt
time/s	Ewe/V	I/mA	error
2031.95	0.00137443	-0.194664	0
2031.95	-0.00389215	-0.195961	0
2031.95	-0.006144	-0.195953	0
2031.96	-0.00854853	-0.195954	0
2031.96	-0.0107813	-0.195954	0
2031.96	-0.0129759	-0.195954	0
2031.96	-0.015056	-0.195952	0
2031.96	-0.0173269	-0.195955	0
2031.97	-0.0195788	-0.195954	0
2031.97	-0.0219833	-0.195947	0
2031.97	-0.0241398	-0.195957	0
2031.97	-0.0263916	-0.195959	0
2031.98	-0.0285099	-0.195955	0
2031.98	-0.0307236	-0.195952	0
2031.98	-0.0330327	-0.19596	0
2031.99	-0.0353036	-0.195956	0
2031.99	-0.0374601	-0.195958	0
2031.99	-0.0396356	-0.195959	0
2031.99	-0.0418111	-0.195954	0
2032	-0.0438912	-0.195956	0
2032	-0.0460095	-0.195959	0
2032	-0.0483377	-0.195956	0
2032.01	-0.0505514	-0.195956	0
2032.01	-0.052765	-0.195957	0
2032.01	-0.0548833	-0.195952	0
2032.02	-0.0569825	-0.195956	0
2032.02	-0.0591008	-0.195955	0
2032.03	-0.0612	-0.195956	0
2032.03	-0.0635472	-0.195956	0
2032.03	-0.0657609	-0.195958	0
2032.04	-0.0679364	-0.195951	0
2032.04	-0.0700738	-0.195957	0
2032.05	-0.0726691	-0.195961	0
2032.05	-0.0750928	-0.195954	0
2032.06	-0.0772492	-0.195954	0
2032.06	-0.079482	-0.195956	0
2032.07	-0.0816766	-0.195961	0
2032.07	-0.0838521	-0.19596	0
2032.07	-0.0859513	-0.195949	0
2032.08	-0.0880505	-0.195949	0
2032.08	-0.0901878	-0.195952	0
2032.09	-0.0922488	-0.195951	0
2032.09	-0.0943671	-0.195959	0
2032.1	-0.0964281	-0.195957	0
2032.1	-0.0985273	-0.195958	0
2032.11	-0.100607	-0.195961	0
2032.12	-0.102707	-0.195951	0
2032.12	-0.104806	-0.195961	0
2032.13	-0.107019	-0.195958	0
2032.13	-0.109176	-0.195954	0
2032.14	-0.111313	-0.195954	0
2032.14	-0.113432	-0.195954	0
2032.15	-0.115531	-0.195961	0
2032.16	-0.117573	-0.195949	0
2032.16	-0.119805	-0.195951	0
2032.17	-0.121866	-0.195961	0
2032.18	-0.123889	-0.195959	0
2032.19	-0.126046	-0.195951	0
2032.19	-0.128107	-0.195954	0
2032.2	-0.130187	-0.195959	0
2032.21	-0.132324	-0.195956	0
2032.22	-0.134557	-0.195954	0
2032.23	-0.136637	-0.195954	0
2032.23	-0.138851	-0.195954	0
2032.24	-0.14095	-0.195961	0
2032.25	-0.143011	-0.195953	0
2032.26	-0.14511	-0.195957	0
2032.27	-0.147267	-0.195953	0
2032.28	-0.149309	-0.195958	0
2032.29	-0.151331	-0.195953	0
2032.3	-0.153392	-0.195954	0
2032.32	-0.155511	-0.195952	0
2032.33	-0.157553	-0.195958	0
2032.34	-0.159671	-0.195955	0
2032.35	-0.161694	-0.195961	0
2032.37	-0.163774	-0.195958	0
2032.38	-0.165835	-0.195954	0
2032.4	-0.167953	-0.195959	0
2032.42	-0.169976	-0.195949	0
2032.44	-0.172094	-0.19596	0
2032.47	-0.174193	-0.195958	0
2032.52	-0.176254	-0.195951	0
2032.63	-0.174174	-0.195959	0
2032.67	-0.172152	-0.19595	0
2032.69	-0.170091	-0.195954	0
2032.72	-0.16801	-0.195953	0
2032.74	-0.165911	-0.195958	0
2032.76	-0.163793	-0.195953	0
2032.79	-0.161751	-0.195962	0
2032.81	-0.159709	-0.195956	0
2032.83	-0.15761	-0.195958	0
2032.85	-0.155511	-0.195956	0
2032.88	-0.153469	-0.195959	0
2032.9	-0.15137	-0.195958	0
2032.93	-0.149328	-0.195956	0
2032.96	-0.147286	-0.195959	0
2032.99	-0.145187	-0.195958	0
2033.03	-0.143145	-0.195957	0
2033.06	-0.141064	-0.195956	0
2033.11	-0.139042	-0.19596	0
2033.16	-0.136981	-0.195959	0
2033.22	-0.13492	-0.195958	0
2033.29	-0.132859	-0.195956	0
2033.39	-0.130798	-0.195959	0
2033.5	-0.128775	-0.195954	0
2033.69	-0.126675	-0.195959	0
2033.97	-0.124634	-0.195956	0
2034.54	-0.122611	-0.195963	0
2043	-0.12263	-0.195959	0
2052.06	-0.124653	-0.195958	0
2069.32	-0.126179	-0.195956	0
2089.32	-0.126542	-0.195961	0
2109.32	-0.126351	-0.195956	0
2129.32	-0.125664	-0.195962	0
2146.2	-0.124271	-0.195959	0
2166.2	-0.122706	-0.195962	0
2183.98	-0.120683	-0.195959	0
2201.77	-0.118909	-0.195962	0
2221.77	-0.117153	-0.19596	0
2241.37	-0.115683	-0.19596	0
2260.59	-0.114061	-0.195961	0
2279.96	-0.112496	-0.195956	0
2299.96	-0.111275	-0.195955	0
2319.96	-0.110206	-0.195963	0
2339.96	-0.109271	-0.195963	0
2359.96	-0.108184	-0.195962	0
2379.96	-0.107134	-0.195962	0
2399.96	-0.106237	-0.195961	0
2419.96	-0.105531	-0.195967	0
2439.96	-0.104577	-0.195963	0
2459.96	-0.10389	-0.195963	0
2479.96	-0.103165	-0.195955	0
2499.96	-0.102401	-0.195963	0
2519.96	-0.101867	-0.195959	0
2539.96	-0.101065	-0.195964	0
2559.96	-0.100493	-0.195961	0
2579.96	-0.0997868	-0.195962	0
2599.96	-0.0992525	-0.195961	0
2619.96	-0.0986418	-0.19596	0
2639.96	-0.0980311	-0.195961	0
2659.96	-0.097535	-0.195964	0
2679.96	-0.0970388	-0.195958	0
2699.96	-0.0964472	-0.195965	0
2719.96	-0.0959701	-0.195959	0
2739.96	-0.0956075	-0.195963	0
2759.96	-0.0950159	-0.195959	0
2779.96	-0.0947106	-0.195966	0
2799.96	-0.0940618	-0.195961	0
2819.96	-0.09389	-0.195963	0
2839.96	-0.0933748	-0.19596	0
2859.96	-0.0930313	-0.19596	0
2879.96	-0.0927641	-0.195961	0
2899.96	-0.0923824	-0.195958	0
2919.96	-0.091829	-0.195961	0
2939.96	-0.0915237	-0.195955	0
2959.96	-0.0911229	-0.195962	0
2979.96	-0.0907603	-0.195961	0
2999.96	-0.0904741	-0.195962	0
3019.96	-0.0902069	-0.195966	0
3039.96	-0.0898825	-0.195959	0
3059.96	-0.0897107	-0.195959	0
3079.96	-0.0895199	-0.195956	0
3099.96	-0.0891955	-0.19596	0
3119.96	-0.0891191	-0.195959	0
3139.96	-0.0887375	-0.195961	0
3159.96	-0.0886039	-0.195966	0
3179.96	-0.0883176	-0.19597	0
3199.96	-0.0880123	-0.19596	0
3219.96	-0.087955	-0.195962	0
3239.96	-0.0878405	-0.195961	0
3259.96	-0.0875543	-0.195958	0
3279.96	-0.0873253	-0.195961	0
3299.96	-0.087039	-0.195958	0
3319.96	-0.08681	-0.195965	0
3339.96	-0.086581	-0.195962	0
3359.96	-0.0865047	-0.195965	0
3379.96	-0.0863139	-0.195964	0
3399.96	-0.0860849	-0.195961	0
3419.96	-0.0860276	-0.195959	0
3439.96	-0.0856841	-0.195966	0
3459.96	-0.085665	-0.195962	0
3479.96	-0.0855696	-0.195956	0
3499.96	-0.0854551	-0.195963	0
3519.96	-0.0853979	-0.195961	0
3539.96	-0.0853215	-0.195968	0
3559.96	-0.0850925	-0.195956	0
3579.96	-0.0848063	-0.195958	0
3599.96	-0.0846727	-0.195961	0
3619.96	-0.0846727	-0.195961	0
3639.96	-0.0845391	-0.195958	0
3659.96	-0.0844246	-0.195959	0
3679.96	-0.0844818	-0.195959	0
3699.96	-0.0843673	-0.195956	0
3719.96	-0.0843483	-0.195955	0
3739.96	-0.0838903	-0.195959	0
3759.96	-0.0837376	-0.195963	0
3779.96	-0.0838903	-0.195961	0
3799.96	-0.0839475	-0.195958	0
3819.96	-0.0836994	-0.195961	0
3831.95	-0.0834322	-0.195966	0

File: 2024-04-25_JP_sample-A4-02-extra_M-cell_Cu-Li-Cellgard2400-separator_25muL-LiFSI-in-DME_outside-glovebox_sigma-0.02_low-OCV_Deltax110.2mm_04_CP_C11.txt
time/s	Ewe/V	I/mA	error
266.616	-0.0520262	-1.94489	0
266.617	-0.159646	-1.95955	0
266.619	-0.18719	-1.95952	0
266.621	-0.207938	-1.95954	0
266.622	-0.225155	-1.95959	0
266.624	-0.239891	-1.95958	0
266.625	-0.252699	-1.95962	0
266.627	-0.264228	-1.9596	0
266.629	-0.274707	-1.95959	0
266.63	-0.284156	-1.9596	0
266.632	-0.292611	-1.95958	0
266.635	-0.306946	-1.95956	0
266.638	-0.319811	-1.9596	0
266.641	-0.330424	-1.9596	0
266.645	-0.340465	-1.95959	0
266.65	-0.349378	-1.95956	0
266.661	-0.35835	-1.9596	0
266.714	-0.358464	-1.95962	0
266.857	-0.362835	-1.9596	0
266.947	-0.371253	-1.9596	0
267.043	-0.379747	-1.95961	0
267.152	-0.387955	-1.95958	0
267.284	-0.396315	-1.95967	0
267.44	-0.404657	-1.95963	0
267.639	-0.413017	-1.95965	0
267.885	-0.421359	-1.95966	0
268.215	-0.4297	-1.95962	0
268.666	-0.437946	-1.95962	0
269.39	-0.446344	-1.95963	0
270.826	-0.45459	-1.9596	0
273.925	-0.462836	-1.95959	0
277.128	-0.47112	-1.95962	0
280.362	-0.479328	-1.9597	0
285.093	-0.48744	-1.95965	0
297.586	-0.484635	-1.95962	0
302.228	-0.476427	-1.9597	0
305.775	-0.468238	-1.9596	0
308.974	-0.46005	-1.95969	0
312.017	-0.451823	-1.95963	0
314.968	-0.443653	-1.95965	0
317.961	-0.435426	-1.95965	0
320.99	-0.427238	-1.95964	0
324.187	-0.419011	-1.95966	0
327.48	-0.410803	-1.95963	0
330.907	-0.402691	-1.95965	0
334.619	-0.394502	-1.95965	0
338.511	-0.386294	-1.95965	0
342.579	-0.378029	-1.95964	0
346.684	-0.369783	-1.95958	0
350.16	-0.358884	-1.95966	0
350.283	-0.359667	-1.95967	0
350.386	-0.358827	-1.95966	0
350.436	-0.351974	-1.95966	0
350.543	-0.356116	-1.95963	0
350.859	-0.355811	-1.95957	0
351.085	-0.354742	-1.95962	0
351.187	-0.35228	-1.95958	0
351.331	-0.352089	-1.95964	0
351.514	-0.348176	-1.95965	0
351.653	-0.351822	-1.95963	0
351.711	-0.347241	-1.95964	0
351.801	-0.344817	-1.95962	0
351.854	-0.346095	-1.95963	0
351.894	-0.350237	-1.95969	0
351.942	-0.342011	-1.95975	0
351.976	-0.341094	-1.9596	0
352.056	-0.344664	-1.95965	0
352.1	-0.337735	-1.9596	0
352.159	-0.336303	-1.9597	0
352.24	-0.332314	-1.95964	0
352.299	-0.335406	-1.95964	0
352.33	-0.330749	-1.95968	0
352.351	-0.316948	-1.95969	0
352.371	-0.314849	-1.95962	0
352.402	-0.316395	-1.95965	0
352.416	-0.317025	-1.95962	0
352.457	-0.314811	-1.95967	0
352.487	-0.311947	-1.95964	0
352.519	-0.311317	-1.95969	0
352.549	-0.311928	-1.95965	0
352.574	-0.317998	-1.95965	0
352.617	-0.314963	-1.95966	0
352.647	-0.304045	-1.95965	0
352.685	-0.301735	-1.95973	0
352.717	-0.301735	-1.95964	0
352.756	-0.303091	-1.95966	0
352.788	-0.305877	-1.95965	0
352.821	-0.309905	-1.95958	0
352.834	-0.307233	-1.95966	0
352.869	-0.303243	-1.95965	0
352.9	-0.305248	-1.95961	0
352.923	-0.299655	-1.95965	0
352.983	-0.30122	-1.95962	0
353.004	-0.299483	-1.95965	0
353.044	-0.294959	-1.95958	0
353.065	-0.29872	-1.95965	0
353.12	-0.293108	-1.95964	0
353.166	-0.296448	-1.95965	0
353.193	-0.30477	-1.95965	0
353.23	-0.299674	-1.95965	0
353.262	-0.294138	-1.9596	0
353.292	-0.291409	-1.95965	0
353.303	-0.285224	-1.95968	0
353.344	-0.282151	-1.95965	0
353.378	-0.284728	-1.95966	0
353.431	-0.287133	-1.95964	0
353.47	-0.287152	-1.95963	0
353.507	-0.283545	-1.95965	0
353.544	-0.279174	-1.95965	0
353.58	-0.283106	-1.95969	0
353.61	-0.285091	-1.95965	0
353.649	-0.281197	-1.9597	0
353.667	-0.278696	-1.9596	0
353.71	-0.276711	-1.95967	0
353.736	-0.281101	-1.9596	0
353.772	-0.274211	-1.95965	0
353.804	-0.27068	-1.95966	0
353.832	-0.267893	-1.95963	0
353.859	-0.274478	-1.95969	0
353.887	-0.268733	-1.95966	0
353.924	-0.263197	-1.95968	0
353.958	-0.262224	-1.95967	0
354.004	-0.266595	-1.95964	0
354.037	-0.263083	-1.95967	0
354.087	-0.256306	-1.95963	0
354.122	-0.257165	-1.95962	0
354.157	-0.254417	-1.95968	0
354.184	-0.262147	-1.9596	0
354.227	-0.261155	-1.95975	0
354.251	-0.256574	-1.95967	0
354.29	-0.25917	-1.95969	0
354.328	-0.254741	-1.95959	0
354.383	-0.25352	-1.95962	0
354.427	-0.249568	-1.95958	0
354.475	-0.248748	-1.95967	0
354.511	-0.247144	-1.95965	0
354.53	-0.240979	-1.95967	0
354.584	-0.247278	-1.95963	0
354.613	-0.247774	-1.95965	0
354.653	-0.236761	-1.95963	0
354.686	-0.233955	-1.95962	0
354.739	-0.233745	-1.95963	0
354.785	-0.228438	-1.95966	0
354.819	-0.218589	-1.95964	0
354.855	-0.227236	-1.95964	0
354.89	-0.22651	-1.9596	0
354.901	-0.220154	-1.95965	0
354.948	-0.211507	-1.95966	0
355.01	-0.208358	-1.95963	0
355.057	-0.203605	-1.9596	0
355.095	-0.205647	-1.95969	0
355.139	-0.207766	-1.95967	0
355.181	-0.206182	-1.9596	0
355.238	-0.201257	-1.95965	0
355.276	-0.191809	-1.95959	0
355.339	-0.193584	-1.95968	0
355.395	-0.189728	-1.95968	0
355.46	-0.1807	-1.95967	0
355.544	-0.178066	-1.95957	0
355.66	-0.179669	-1.95967	0
355.768	-0.17923	-1.9596	0
355.886	-0.1765	-1.95963	0
355.999	-0.173828	-1.95965	0
356.108	-0.180013	-1.95959	0
356.235	-0.175393	-1.95963	0
356.327	-0.168713	-1.95961	0
356.66	-0.165754	-1.95963	0
356.777	-0.158901	-1.95966	0
356.938	-0.160982	-1.95959	0
357.078	-0.159092	-1.95966	0
357.344	-0.154645	-1.95965	0
357.55	-0.148842	-1.95963	0
357.883	-0.146647	-1.95959	0
358.112	-0.142467	-1.95962	0
358.419	-0.133858	-1.95963	0
358.921	-0.128189	-1.95965	0
359.974	-0.12189	-1.95965	0
361.963	-0.119733	-1.95962	0
363.917	-0.121757	-1.95961	0
365.625	-0.12586	-1.95961	0
367.595	-0.127846	-1.95969	0
369.083	-0.125918	-1.95962	0
370.95	-0.127559	-1.95967	0
372.422	-0.129468	-1.95965	0
373.826	-0.133209	-1.95965	0
375.076	-0.135271	-1.95966	0
376.915	-0.139184	-1.95963	0
378.108	-0.143173	-1.95969	0
380.421	-0.145101	-1.95969	0
381.675	-0.1493	-1.95961	0
383.082	-0.153461	-1.95965	0
383.816	-0.155733	-1.95967	0
384.935	-0.161841	-1.95964	0
385.969	-0.165945	-1.95966	0
386.924	-0.174401	-1.95966	0
387.527	-0.17148	-1.95965	0
388.632	-0.177875	-1.95965	0
389.742	-0.18007	-1.95962	0
390.322	-0.177168	-1.95968	0
391.203	-0.170831	-1.95966	0
391.857	-0.164265	-1.95958	0
392.382	-0.170526	-1.95965	0
393.08	-0.168197	-1.95961	0
393.676	-0.165697	-1.95964	0
394.497	-0.165277	-1.95963	0
395.641	-0.164933	-1.95965	0
396.022	-0.160906	-1.95962	0
396.668	-0.160715	-1.95961	0
397.377	-0.160409	-1.95965	0
397.85	-0.1514	-1.95959	0
398.684	-0.142161	-1.95964	0
399.761	-0.139336	-1.95963	0
400.787	-0.143536	-1.95968	0
401.782	-0.144452	-1.95964	0
402.883	-0.138268	-1.95965	0
405.202	-0.136206	-1.95965	0
406.075	-0.135748	-1.9596	0
406.8	-0.137848	-1.95966	0
407.846	-0.144528	-1.95963	0
408.566	-0.146456	-1.95965	0
409.492	-0.14638	-1.9596	0
410.427	-0.134278	-1.95966	0
411.199	-0.138268	-1.95964	0
412.137	-0.142295	-1.95962	0
412.595	-0.146303	-1.95962	0
412.73	-0.146208	-1.95964	0
412.955	-0.14575	-1.95967	0
413.017	-0.145635	-1.95958	0
413.18	-0.145616	-1.95965	0
413.628	-0.147525	-1.95965	0
414.478	-0.140692	-1.95967	0
415.333	-0.135805	-1.95969	0
416.285	-0.135939	-1.95963	0
417.254	-0.136359	-1.95963	0
418.26	-0.141016	-1.95969	0
419.423	-0.142887	-1.95965	0
421.105	-0.146781	-1.95961	0
422.458	-0.153003	-1.95967	0
424.467	-0.152297	-1.95968	0
426.987	-0.149567	-1.95967	0
427.855	-0.157852	-1.95963	0
428.635	-0.162108	-1.9597	0
429.23	-0.16396	-1.95965	0
430.109	-0.163788	-1.95963	0
431.173	-0.165792	-1.95969	0
432.209	-0.170411	-1.95971	0
433.914	-0.1765	-1.95963	0
434.844	-0.180604	-1.95969	0
435.564	-0.180337	-1.95959	0
436.964	-0.178829	-1.95965	0
437.707	-0.187132	-1.9596	0
438.111	-0.181673	-1.95964	0
439.101	-0.175012	-1.95966	0
440.427	-0.176978	-1.95962	0
442.079	-0.173542	-1.95966	0
442.6	-0.17148	-1.95963	0
442.757	-0.171557	-1.95965	0
442.891	-0.173294	-1.95961	0
442.938	-0.175622	-1.95959	0
443.201	-0.178333	-1.9597	0
443.729	-0.183124	-1.95967	0
444.197	-0.185892	-1.95966	0
444.877	-0.185128	-1.95969	0
445.326	-0.187304	-1.95967	0
446.386	-0.188965	-1.95964	0
446.616	-0.191503	-1.95967	0