Folder: SUMMER-JOB-2024-MATERIALS-PHYSICS/EXPERIMENTAL-DATA/Cycling-data-Master-thesis/I-cell (part 2)

File: 2024-04-26_JP-measurements_sample-A6-02_M-cell_Cu-Li-Cellgard2400-separator_25muL-LiFSI-in-DME_outside-glovebox_sigma-0.02_added-OCV-0.1s_Deltax110.1mm_02_MB_C02.txt
time/s	Ewe/V	I/mA	error
60.053	3.05844	-0.0250311	0
60.1732	0.00944676	-14.6245	0
60.1736	0.00931314	-14.5577	0
60.174	0.00937041	-14.4883	0
60.1744	0.00948494	-14.4215	0
60.1748	0.00937041	-14.3515	0
60.1752	0.00944676	-14.2809	0
60.1756	0.00931314	-14.2115	0
60.176	0.00937041	-14.153	0
60.1764	0.00935132	-14.0874	0
60.1768	0.00937041	-14.0174	0
60.1772	0.00931314	-13.9506	0
60.1776	0.00940858	-13.8825	0
60.178	0.00931314	-13.8259	0
60.1784	0.00937041	-13.7616	0
60.1788	0.00933223	-13.6967	0
60.1792	0.00952311	-13.6362	0
60.1796	0.00944676	-13.5745	0
60.18	0.00940858	-13.5108	0
60.1804	0.00929405	-13.4548	0
60.1808	0.00946585	-13.3944	0
60.1812	0.00944676	-13.3327	0
60.1816	0.00933223	-13.2684	0
60.1822	0.0093895	-13.1946	0
60.1826	0.00937041	-13.1341	0
60.183	0.00944676	-13.0705	0
60.1834	0.00935132	-13.0151	0
60.1838	0.0093895	-12.9553	0
60.1842	0.00937041	-12.9018	0
60.1846	0.00929405	-12.8395	0
60.1852	0.00935132	-12.758	0
60.1858	0.00940858	-12.681	0
60.1862	0.00946585	-12.6282	0
60.1866	0.00944676	-12.5779	0
60.187	0.00937041	-12.5225	0
60.1876	0.0093895	-12.4405	0
60.1882	0.00948494	-12.3641	0
60.1886	0.00946585	-12.3125	0
60.1892	0.0093895	-12.24	0
60.1898	0.00948494	-12.1668	0
60.1902	0.00940858	-12.1121	0
60.1908	0.00935132	-12.0453	0
60.1912	0.00927497	-11.9924	0
60.1918	0.00942767	-11.9167	0
60.1922	0.00940858	-11.8652	0
60.1928	0.00942767	-11.7945	0
60.1934	0.00942767	-11.7302	0
60.194	0.00937041	-11.6583	0
60.1946	0.00940858	-11.5864	0
60.1952	0.00933223	-11.5234	0
60.1958	0.00933223	-11.4477	0
60.1964	0.00935132	-11.3809	0
60.197	0.00944676	-11.3121	0
60.1976	0.00940858	-11.2504	0
60.1982	0.0093895	-11.1804	0
60.1988	0.00937041	-11.1187	0
60.1994	0.0093895	-11.0614	0
60.2	0.00948494	-10.9927	0
60.2006	0.00944676	-10.9322	0
60.2012	0.0093895	-10.8629	0
60.2018	0.00933223	-10.8081	0
60.2024	0.0093895	-10.7375	0
60.203	0.00935132	-10.6828	0
60.2036	0.00940858	-10.6217	0
60.2042	0.00933223	-10.5587	0
60.2048	0.00933223	-10.5033	0
60.2054	0.00940858	-10.4505	0
60.206	0.00944676	-10.3843	0
60.2066	0.00942767	-10.3238	0
60.2072	0.00929405	-10.2729	0
60.2078	0.00940858	-10.2163	0
60.2084	0.0093895	-10.1552	0
60.2092	0.00946585	-10.0839	0
60.2098	0.00948494	-10.0292	0
60.2104	0.00935132	-9.97002	0
60.211	0.00937041	-9.91974	0
60.2118	0.00937041	-9.85356	0
60.2124	0.0093895	-9.79883	0
60.213	0.00935132	-9.74347	0
60.2138	0.00946585	-9.67919	0
60.2144	0.00933223	-9.62637	0
60.215	0.00931314	-9.57228	0
60.2156	0.00946585	-9.51628	0
60.2164	0.0095422	-9.45964	0
60.217	0.00937041	-9.40618	0
60.2178	0.00942767	-9.34191	0
60.2184	0.00940858	-9.28782	0
60.2192	0.0093895	-9.23054	0
60.2198	0.00942767	-9.17963	0
60.2206	0.00946585	-9.11472	0
60.2214	0.0093895	-9.05808	0
60.2222	0.00948494	-8.99508	0
60.223	0.0093895	-8.94035	0
60.2238	0.00944676	-8.87035	0
60.2246	0.00937041	-8.81753	0
60.2254	0.00940858	-8.76217	0
60.2262	0.00948494	-8.69725	0
60.2272	0.00946585	-8.62662	0
60.2282	0.00944676	-8.56234	0
60.229	0.00944676	-8.50634	0
60.2298	0.00937041	-8.44906	0
60.2308	0.00942767	-8.38861	0
60.2316	0.00937041	-8.33515	0
60.2324	0.00940858	-8.28042	0
60.2332	0.00931314	-8.22697	0
60.2342	0.00946585	-8.17033	0
60.2352	0.00931314	-8.10669	0
60.236	0.00935132	-8.04814	0
60.237	0.00946585	-7.9966	0
60.2378	0.00940858	-7.9406	0
60.2388	0.00937041	-7.88459	0
60.2398	0.00937041	-7.82923	0
60.2408	0.00942767	-7.76304	0
60.2418	0.00927497	-7.71277	0
60.2428	0.00942767	-7.66186	0
60.2436	0.00944676	-7.60777	0
60.2446	0.00956129	-7.55686	0
60.2456	0.00944676	-7.50531	0
60.2466	0.00935132	-7.44676	0
60.2478	0.00950403	-7.39013	0
60.249	0.0093895	-7.32776	0
60.2502	0.00942767	-7.26794	0
60.2512	0.00944676	-7.21385	0
60.2524	0.0093895	-7.16294	0
60.2536	0.00940858	-7.10375	0
60.2548	0.00942767	-7.05157	0
60.2558	0.00944676	-6.99621	0
60.257	0.00935132	-6.93893	0
60.2584	0.00942767	-6.87975	0
60.2596	0.0093895	-6.82884	0
60.2608	0.00935132	-6.77856	0
60.262	0.00935132	-6.72638	0
60.263	0.0093895	-6.67611	0
60.2644	0.00940858	-6.62201	0
60.2658	0.00946585	-6.56728	0
60.2672	0.0093895	-6.5081	0
60.2686	0.00942767	-6.45274	0
60.2702	0.00946585	-6.39673	0
60.2714	0.00940858	-6.34582	0
60.273	0.00937041	-6.29237	0
60.2742	0.00935132	-6.23764	0
60.2758	0.00933223	-6.18482	0
60.2774	0.00931314	-6.13264	0
60.279	0.00944676	-6.07663	0
60.2806	0.00933223	-6.02318	0
60.2822	0.00950403	-5.97036	0
60.2836	0.00933223	-5.91436	0
60.2856	0.00948494	-5.86026	0
60.2872	0.00946585	-5.8049	0
60.2888	0.00927497	-5.75272	0
60.2908	0.00929405	-5.69926	0
60.2924	0.00944676	-5.64835	0
60.2942	0.00944676	-5.59617	0
60.296	0.00942767	-5.54462	0
60.2978	0.00950403	-5.49244	0
60.2998	0.00927497	-5.43389	0
60.302	0.00935132	-5.3798	0
60.304	0.00937041	-5.32507	0
60.3062	0.00950403	-5.26652	0
60.3082	0.0095422	-5.2137	0
60.3106	0.0093895	-5.15961	0
60.313	0.0093895	-5.10233	0
60.3154	0.00929405	-5.04888	0
60.3176	0.0093895	-4.99415	0
60.3198	0.00940858	-4.94006	0
60.3222	0.00937041	-4.88469	0
60.3248	0.00942767	-4.83314	0
60.3274	0.0093895	-4.77842	0
60.3302	0.00948494	-4.7256	0
60.3328	0.00937041	-4.67341	0
60.3356	0.0093895	-4.61868	0
60.338	0.0093895	-4.56777	0
60.341	0.00933223	-4.50986	0
60.344	0.00933223	-4.45768	0
60.3472	0.00944676	-4.39977	0
60.3508	0.00937041	-4.34504	0
60.354	0.00944676	-4.2884	0
60.3574	0.00937041	-4.23813	0
60.3608	0.00935132	-4.18785	0
60.3642	0.00931314	-4.13122	0
60.3678	0.00946585	-4.07967	0
60.3716	0.00942767	-4.02939	0
60.3732	0.00946585	-4.07966	0
60.4034	0.00940858	-3.66094	0
60.4084	0.00935132	-3.60927	0
60.4134	0.00935132	-3.55927	0
60.4186	0.00937041	-3.50786	0
60.424	0.00935132	-3.45658	0
60.4296	0.00937041	-3.40606	0
60.4354	0.0093895	-3.3556	0
60.4416	0.0093895	-3.30413	0
60.448	0.00940858	-3.25196	0
60.4548	0.00942767	-3.20144	0
60.4616	0.00940858	-3.15003	0
60.4688	0.0093895	-3.09856	0
60.4764	0.00950403	-3.04753	0
60.484	0.00933223	-2.99727	0
60.492	0.00946585	-2.9472	0
60.5004	0.00946585	-2.89624	0
60.5092	0.00944676	-2.84597	0
60.5186	0.00933223	-2.79494	0
60.5282	0.00933223	-2.74468	0
60.5382	0.00944676	-2.69461	0
60.5486	0.00927497	-2.64384	0
60.5596	0.00937041	-2.59338	0
60.5712	0.00935132	-2.54286	0
60.5834	0.00944676	-2.49216	0
60.5962	0.00946585	-2.44145	0
60.6096	0.00942767	-2.39125	0
60.6236	0.00935132	-2.34079	0
60.6386	0.00929405	-2.29072	0
60.6544	0.00935132	-2.24039	0
60.6714	0.00940858	-2.18841	0
60.6894	0.00937041	-2.1377	0
60.7084	0.00940858	-2.08668	0
60.7288	0.0093895	-2.03667	0
60.7498	0.00944676	-1.98666	0
60.773	0.00942767	-1.93665	0
60.7976	0.00944676	-1.88658	0
60.8236	0.00940858	-1.8365	0
60.8526	0.00933223	-1.78643	0
60.8832	0.00933223	-1.73611	0
60.917	0.00935132	-1.68591	0
60.9536	0.00948494	-1.63564	0
60.9938	0.00929405	-1.58532	0
61.0372	0.0093895	-1.53524	0
61.0866	0.00950403	-1.48415	0
61.1402	0.00931314	-1.43389	0
61.2002	0.00937041	-1.38286	0
61.2668	0.00948494	-1.33285	0
61.3412	0.0093895	-1.28259	0
61.4258	0.00940858	-1.23258	0
61.5202	0.0093895	-1.18244	0
61.6288	0.00937041	-1.13218	0
61.7552	0.00948494	-1.08205	0
61.9018	0.00942767	-1.03172	0
62.0744	0.00942767	-0.981582	0
62.2788	0.00929405	-0.931128	0
62.526	0.00940858	-0.880483	0
62.8328	0.0093895	-0.829965	0
63.2056	0.00944676	-0.779956	0
63.6724	0.00944676	-0.729565	0
64.2744	0.00940858	-0.679556	0
65.041	0.0093895	-0.629166	0
65.0528	0.0093895	-0.630375	0
65.0534	0.00942767	-0.629993	0
66.0424	0.00942767	-0.579411	0
67.3916	0.00942767	-0.529148	0
69.2014	0.0093895	-0.478885	0
71.8188	0.00937041	-0.428846	0
75.2842	0.00937041	-0.3788	0
80.321	0.00933223	-0.328759	0
87.8678	0.00946585	-0.278719	0
97.8678	0.00940858	-0.234783	0
107.868	0.00935132	-0.203477	0
117.868	0.00931314	-0.17993	0
127.868	0.00937041	-0.161775	0
137.868	0.00929405	-0.147382	0
147.868	0.00931314	-0.135167	0
157.868	0.00931314	-0.124994	0
167.868	0.0093895	-0.116719	0
177.868	0.00940858	-0.109227	0
187.868	0.00937041	-0.102625	0
197.868	0.0093895	-0.0966481	0
207.868	0.00931314	-0.0916192	0
217.868	0.00933223	-0.0871378	0
227.868	0.00944676	-0.0831719	0
237.868	0.00925588	-0.0791043	0
247.868	0.00940858	-0.0756541	0
257.868	0.00929405	-0.0723567	0
267.868	0.0093895	-0.0694094	0
277.868	0.00931314	-0.0668886	0
287.868	0.0093895	-0.0640495	0
297.868	0.00937041	-0.0619807	0
307.868	0.00937041	-0.0597081	0
317.868	0.00929405	-0.0577793	0
327.868	0.00935132	-0.0558506	0
337.868	0.00940858	-0.0542591	0
347.868	0.0093895	-0.0524131	0
357.868	0.00940858	-0.0507262	0
367.868	0.00935132	-0.0491475	0
377.868	0.00929405	-0.0481099	0
387.868	0.0093895	-0.0463403	0
397.868	0.00937041	-0.0450289	0
407.868	0.00931314	-0.044089	0
417.868	0.00931314	-0.0427336	0
427.868	0.00929405	-0.0416213	0
437.868	0.00944676	-0.0406674	0
447.868	0.00935132	-0.0396753	0
451.773	0.00933223	-0.0392344	0
451.774	0.00937041	-0.0393292	0

File: 2024-04-26_JP-measurements_sample-A6-02_M-cell_Cu-Li-Cellgard2400-separator_25muL-LiFSI-in-DME_outside-glovebox_sigma-0.02_added-OCV-0.1s_Deltax110.1mm_04_CP_C02.txt
time/s	Ewe/V	I/mA	error
451.927	-0.0471593	-1.94431	0
451.928	-0.104766	-1.95962	0
451.929	-0.121029	-1.95964	0
451.93	-0.134906	-1.95963	0
451.932	-0.147333	-1.95966	0
451.933	-0.158385	-1.95969	0
451.934	-0.168998	-1.95958	0
451.935	-0.178733	-1.95964	0
451.936	-0.187705	-1.95961	0
451.938	-0.196199	-1.95962	0
451.939	-0.204254	-1.95965	0
451.94	-0.21168	-1.95966	0
451.941	-0.218838	-1.95965	0
451.942	-0.225614	-1.95963	0
451.944	-0.235883	-1.95965	0
451.946	-0.245599	-1.95966	0
451.949	-0.255125	-1.9596	0
451.951	-0.264707	-1.95968	0
451.953	-0.273468	-1.95965	0
451.956	-0.281295	-1.9597	0
451.958	-0.288567	-1.95973	0
451.961	-0.295115	-1.95962	0
451.964	-0.302616	-1.95967	0
451.967	-0.310118	-1.95969	0
451.971	-0.3172	-1.95961	0
451.974	-0.323594	-1.95969	0
451.979	-0.330409	-1.9597	0
451.984	-0.336861	-1.95964	0
451.991	-0.34358	-1.95966	0
451.999	-0.350127	-1.9597	0
452.011	-0.356617	-1.95967	0
452.029	-0.363031	-1.95963	0
452.061	-0.36933	-1.95965	0
452.142	-0.375591	-1.95967	0
452.247	-0.381718	-1.9597	0
452.357	-0.388017	-1.95965	0
452.491	-0.394278	-1.95969	0
452.657	-0.400539	-1.95969	0
452.875	-0.406762	-1.95965	0
453.182	-0.412966	-1.95969	0
453.593	-0.419055	-1.9597	0
454.119	-0.42522	-1.95969	0
454.737	-0.431386	-1.95964	0
455.432	-0.437532	-1.95971	0
456.196	-0.443717	-1.95972	0
457.022	-0.449921	-1.95969	0
457.918	-0.45601	-1.95963	0
458.897	-0.462156	-1.95976	0
460.042	-0.468494	-1.95972	0
461.219	-0.474621	-1.95963	0
462.525	-0.480748	-1.95966	0
463.958	-0.486895	-1.95969	0
465.758	-0.493041	-1.95972	0
468.164	-0.499245	-1.95972	0
472.536	-0.505372	-1.95967	0
480.655	-0.499226	-1.95969	0
483.704	-0.493022	-1.95969	0
486.099	-0.486742	-1.95971	0
488.373	-0.480481	-1.95969	0
490.421	-0.474354	-1.95974	0
492.4	-0.468245	-1.95974	0
494.301	-0.461985	-1.95969	0
496.243	-0.455781	-1.95972	0
498.102	-0.449634	-1.95965	0
500.076	-0.443373	-1.95976	0
501.997	-0.437265	-1.95965	0
504.035	-0.431004	-1.95973	0
506.054	-0.4248	-1.95972	0
508.126	-0.418673	-1.95975	0
510.275	-0.412527	-1.95973	0
512.492	-0.40638	-1.95974	0
514.854	-0.400196	-1.95976	0
517.274	-0.394049	-1.95973	0
519.835	-0.387865	-1.95972	0
522.526	-0.38168	-1.95972	0
525.104	-0.375572	-1.95967	0
527.863	-0.369425	-1.95968	0
530.298	-0.360129	-1.95978	0
530.317	-0.351654	-1.95973	0
530.321	-0.358125	-1.95974	0
530.338	-0.359919	-1.95968	0
530.351	-0.349669	-1.95972	0
530.371	-0.348791	-1.95978	0
530.39	-0.343293	-1.95974	0
530.4	-0.340449	-1.95963	0
530.407	-0.332089	-1.95976	0
530.431	-0.328538	-1.95972	0
530.444	-0.334608	-1.95973	0
530.449	-0.334341	-1.95972	0
530.456	-0.336078	-1.95969	0
530.463	-0.340774	-1.95974	0
530.466	-0.328767	-1.95976	0
530.471	-0.320025	-1.95964	0
530.498	-0.315348	-1.95972	0
530.507	-0.317791	-1.9598	0
530.52	-0.310862	-1.95971	0
530.538	-0.312256	-1.95973	0
530.544	-0.313229	-1.95969	0
530.555	-0.310442	-1.95973	0
530.575	-0.302559	-1.95973	0
530.583	-0.296241	-1.9597	0
530.609	-0.292328	-1.95974	0
530.625	-0.298722	-1.95971	0
530.631	-0.303647	-1.95973	0
530.636	-0.311588	-1.95973	0
530.646	-0.307961	-1.95966	0
530.651	-0.313783	-1.95974	0
530.659	-0.304143	-1.95972	0
530.671	-0.296584	-1.95974	0
530.694	-0.293034	-1.95967	0
530.706	-0.289655	-1.95969	0
530.735	-0.288663	-1.95969	0
530.741	-0.295687	-1.95972	0
530.761	-0.289827	-1.95975	0
530.781	-0.291869	-1.95973	0
530.791	-0.286945	-1.95972	0
530.81	-0.280455	-1.9597	0
530.822	-0.280016	-1.95976	0
530.842	-0.276332	-1.95972	0
530.858	-0.272991	-1.9597	0
530.87	-0.26925	-1.95971	0
530.883	-0.266635	-1.9597	0
530.897	-0.264974	-1.95973	0
530.922	-0.260278	-1.95974	0
530.942	-0.263294	-1.95972	0
530.955	-0.269918	-1.95976	0
530.96	-0.261252	-1.95968	0
530.986	-0.258541	-1.95974	0
530.997	-0.259839	-1.95972	0
531.012	-0.257224	-1.95976	0
531.023	-0.249035	-1.9597	0
531.034	-0.239644	-1.95969	0
531.059	-0.232887	-1.95976	0
531.075	-0.236647	-1.95973	0
531.09	-0.234585	-1.95979	0
531.109	-0.236704	-1.95967	0
531.125	-0.23176	-1.95971	0
531.144	-0.226358	-1.95973	0
531.166	-0.217311	-1.95972	0
531.216	-0.213455	-1.9597	0
531.228	-0.213283	-1.95976	0
531.252	-0.211909	-1.95976	0
531.295	-0.209732	-1.95972	0
531.317	-0.206831	-1.95971	0
531.354	-0.211126	-1.95973	0
531.412	-0.21063	-1.9597	0
531.43	-0.214409	-1.95976	0
531.465	-0.209942	-1.95974	0
531.515	-0.206736	-1.95969	0
531.545	-0.198528	-1.95964	0
531.57	-0.194233	-1.9597	0
531.614	-0.19177	-1.95972	0
531.648	-0.193393	-1.95972	0
531.696	-0.194004	-1.95976	0
531.767	-0.189403	-1.95973	0
531.866	-0.18465	-1.95972	0
531.931	-0.183791	-1.95977	0
532.008	-0.176958	-1.95974	0
532.076	-0.176748	-1.95976	0
532.14	-0.169323	-1.95972	0
532.179	-0.161859	-1.95973	0
532.35	-0.161878	-1.95972	0
532.544	-0.159817	-1.95971	0
532.753	-0.159683	-1.95975	0
532.897	-0.155369	-1.95974	0
532.995	-0.157583	-1.9597	0
533.092	-0.150979	-1.95978	0
533.342	-0.146856	-1.95974	0
533.695	-0.140423	-1.95967	0
533.883	-0.138438	-1.95972	0
534.199	-0.132253	-1.95967	0
534.652	-0.129848	-1.95972	0
535.524	-0.123472	-1.95971	0
536.787	-0.123396	-1.95974	0
538.24	-0.1254	-1.95973	0
539.515	-0.129485	-1.95972	0
540.544	-0.129562	-1.95976	0
541.514	-0.133551	-1.95975	0
542.918	-0.135632	-1.95974	0
543.367	-0.13777	-1.95971	0
544.419	-0.143992	-1.95974	0
545.723	-0.148192	-1.95968	0
546.521	-0.148115	-1.95974	0
547.262	-0.152181	-1.9597	0
548.275	-0.154281	-1.95968	0
548.701	-0.15848	-1.95978	0
549.431	-0.164627	-1.9597	0
550.18	-0.164436	-1.95969	0
550.693	-0.162184	-1.95976	0
550.853	-0.164207	-1.95967	0
551.489	-0.166211	-1.95968	0
551.85	-0.16623	-1.95975	0
552.056	-0.157354	-1.95972	0
552.418	-0.160504	-1.95974	0
552.503	-0.152907	-1.95974	0
552.7	-0.146302	-1.95978	0
553.314	-0.139927	-1.95967	0
553.711	-0.14405	-1.95976	0
554.389	-0.143801	-1.95973	0
554.813	-0.143954	-1.95972	0
555.147	-0.141263	-1.95981	0
555.205	-0.13357	-1.9597	0
556.151	-0.12918	-1.95975	0
556.567	-0.128989	-1.95978	0
557.222	-0.12708	-1.95967	0
558.571	-0.126317	-1.95981	0
559.394	-0.121945	-1.95969	0
560.125	-0.113966	-1.9597	0
560.765	-0.114119	-1.95972	0
561.288	-0.107915	-1.95973	0
563.595	-0.107992	-1.95972	0
565.207	-0.110168	-1.95976	0
565.8	-0.108049	-1.95977	0
567.518	-0.110149	-1.95971	0
569.051	-0.108087	-1.95973	0
570.97	-0.110149	-1.95969	0
572.996	-0.107801	-1.95974	0
574.224	-0.111905	-1.95975	0
575.154	-0.113947	-1.95974	0
576.808	-0.116715	-1.95967	0
577.303	-0.118796	-1.95974	0
577.516	-0.11662	-1.95963	0
577.59	-0.116906	-1.9597	0
577.759	-0.119082	-1.95963	0
577.956	-0.116792	-1.95968	0
578.419	-0.118624	-1.9597	0
578.668	-0.118548	-1.9597	0
579.169	-0.118548	-1.95976	0
579.469	-0.11641	-1.95968	0
579.63	-0.116276	-1.95974	0
579.791	-0.1183	-1.95976	0
580.904	-0.12248	-1.95972	0
581.294	-0.120304	-1.95972	0
581.417	-0.117803	-1.9597	0
581.673	-0.117708	-1.95969	0
581.817	-0.117899	-1.95972	0
581.997	-0.117822	-1.95972	0
582.229	-0.118185	-1.95971	0
582.583	-0.118681	-1.95974	0
584.104	-0.12519	-1.95972	0
584.791	-0.129256	-1.95976	0
585.932	-0.135441	-1.95973	0
586.582	-0.139793	-1.95975	0
586.722	-0.139927	-1.95975	0
586.996	-0.13985	-1.95974	0
587.711	-0.139907	-1.95974	0
588.033	-0.14006	-1.95971	0
588.515	-0.135594	-1.95976	0
590.034	-0.131299	-1.9597	0
590.606	-0.133704	-1.95969	0
592.66	-0.133666	-1.95967	0
595.982	-0.133666	-1.95972	0
597.29	-0.126584	-1.95974	0
598.276	-0.124312	-1.9597	0
599.029	-0.12164	-1.95977	0
600.868	-0.121697	-1.95974	0
602.707	-0.124064	-1.95972	0
603.688	-0.121583	-1.95974	0
604.703	-0.120934	-1.95969	0
607.316	-0.127118	-1.95974	0
608.695	-0.122976	-1.95968	0
609.773	-0.122747	-1.95971	0
610.579	-0.129008	-1.95973	0
611.646	-0.129218	-1.95973	0
612.887	-0.13126	-1.95969	0
614.75	-0.135823	-1.95974	0
615.891	-0.13525	-1.95968	0
616.668	-0.13943	-1.95973	0
617.671	-0.143935	-1.95974	0
618.185	-0.141492	-1.95971	0
619.19	-0.145691	-1.9597	0
620.68	-0.146646	-1.95969	0
621.939	-0.143916	-1.95974	0
622.85	-0.136853	-1.95972	0
624.341	-0.141015	-1.95974	0
625.874	-0.142141	-1.95973	0
627.021	-0.142465	-1.95971	0
628.307	-0.146627	-1.95972	0
629.575	-0.148574	-1.95974	0
630.504	-0.152639	-1.95972	0
631.37	-0.152277	-1.95974	0
631.927	-0.148192	-1.95975	0

File: 2024-04-26_JP-measurements_sample-A6-03_M-cell_Cu-Li-Cellgard2400-separator_25muL-LiFSI-in-DME_outside-glovebox_sigma-0.002_added-OCV-0.1s_Deltax110.2mm_02_MB_C01.txt
time/s	Ewe/V	I/mA	error
60.053	2.62344	-0.0250252	0
60.1732	0.00939951	-12.1737	0
60.1738	0.00955224	-12.1119	0
60.1742	0.00939951	-12.0616	0
60.1748	0.0094186	-12.003	0
60.1754	0.00938042	-11.9355	0
60.176	0.00945679	-11.8712	0
60.1766	0.00949497	-11.805	0
60.1772	0.00939951	-11.7413	0
60.1778	0.00949497	-11.6776	0
60.1784	0.00945679	-11.6178	0
60.179	0.00949497	-11.556	0
60.1796	0.00936133	-11.4948	0
60.1802	0.0094186	-11.4356	0
60.1808	0.0094186	-11.3624	0
60.1816	0.0094377	-11.2987	0
60.1822	0.00938042	-11.2376	0
60.1828	0.0094186	-11.1764	0
60.1834	0.00951406	-11.1115	0
60.184	0.00939951	-11.0554	0
60.1846	0.00945679	-10.9987	0
60.1852	0.00947588	-10.9446	0
60.1858	0.0094377	-10.8803	0
60.1864	0.00945679	-10.8268	0
60.187	0.0094186	-10.7695	0
60.1876	0.00947588	-10.7115	0
60.1882	0.00947588	-10.6599	0
60.1888	0.00947588	-10.6013	0
60.1894	0.0094186	-10.5408	0
60.1902	0.0094186	-10.4765	0
60.1908	0.00934224	-10.4173	0
60.1916	0.00947588	-10.3536	0
60.1922	0.0094377	-10.2931	0
60.1928	0.0094377	-10.2371	0
60.1936	0.0094377	-10.1855	0
60.1942	0.00938042	-10.1192	0
60.1948	0.00947588	-10.0689	0
60.1954	0.00934224	-10.0123	0
60.1962	0.00951406	-9.9422	0
60.197	0.0094186	-9.88234	0
60.1976	0.0094377	-9.83076	0
60.1982	0.00955224	-9.77981	0
60.199	0.0094377	-9.71867	0
60.1996	0.0094377	-9.66454	0
60.2004	0.00938042	-9.60531	0
60.201	0.00945679	-9.555	0
60.2016	0.00945679	-9.50405	0
60.2024	0.00945679	-9.44482	0
60.2032	0.00939951	-9.37604	0
60.204	0.00955224	-9.32128	0
60.2048	0.00947588	-9.26077	0
60.2056	0.0094377	-9.19645	0
60.2064	0.00949497	-9.13786	0
60.2072	0.00951406	-9.0729	0
60.208	0.00951406	-9.01431	0
60.2088	0.00957133	-8.95318	0
60.2096	0.00936133	-8.90032	0
60.2104	0.00947588	-8.84364	0
60.2112	0.00939951	-8.78632	0
60.212	0.00949497	-8.73346	0
60.2128	0.00939951	-8.67487	0
60.2136	0.00947588	-8.61883	0
60.2144	0.00947588	-8.56406	0
60.2152	0.00951406	-8.50165	0
60.2162	0.00936133	-8.44561	0
60.217	0.0094377	-8.38829	0
60.2178	0.00938042	-8.33607	0
60.2186	0.0094377	-8.28512	0
60.2194	0.0094186	-8.23481	0
60.2204	0.00939951	-8.17431	0
60.2214	0.00947588	-8.10872	0
60.2222	0.00938042	-8.05076	0
60.2232	0.00934224	-7.99472	0
60.2242	0.0094186	-7.93103	0
60.2252	0.00938042	-7.88009	0
60.226	0.00939951	-7.82532	0
60.227	0.00947588	-7.76864	0
60.228	0.00936133	-7.70941	0
60.229	0.00947588	-7.65018	0
60.23	0.00951406	-7.59605	0
60.231	0.0094377	-7.54001	0
60.2318	0.00947588	-7.4897	0
60.2328	0.00947588	-7.4362	0
60.2338	0.0094377	-7.38207	0
60.235	0.00945679	-7.31902	0
60.236	0.0094377	-7.26489	0
60.2372	0.00939951	-7.20439	0
60.2384	0.00939951	-7.14198	0
60.2396	0.00949497	-7.08339	0
60.2408	0.00949497	-7.02416	0
60.242	0.0094186	-6.9643	0
60.243	0.00955224	-6.90953	0
60.2442	0.0094377	-6.85858	0
60.2454	0.0094186	-6.807	0
60.2466	0.0094377	-6.74904	0
60.2478	0.0094377	-6.69109	0
60.2492	0.00947588	-6.62931	0
60.2504	0.00947588	-6.57582	0
60.2516	0.0094186	-6.5236	0
60.253	0.00947588	-6.45545	0
60.2544	0.0094186	-6.40196	0
60.2556	0.00934224	-6.34592	0
60.257	0.0094377	-6.29561	0
60.2582	0.0094377	-6.24211	0
60.2594	0.00936133	-6.19116	0
60.2608	0.00953315	-6.14085	0
60.2622	0.00939951	-6.08799	0
60.2636	0.00934224	-6.02813	0
60.265	0.0094186	-5.97654	0
60.2664	0.00945679	-5.92369	0
60.268	0.00957133	-5.86637	0
60.2696	0.00955224	-5.81096	0
60.2712	0.0094377	-5.75492	0
60.2728	0.00947588	-5.69697	0
60.2742	0.00932315	-5.64029	0
60.276	0.00936133	-5.58998	0
60.2776	0.00945679	-5.52948	0
60.2794	0.00947588	-5.47598	0
60.281	0.00945679	-5.42249	0
60.2828	0.00939951	-5.3639	0
60.2848	0.00939951	-5.30976	0
60.2866	0.0094377	-5.24799	0
60.2886	0.00945679	-5.19004	0
60.2906	0.00949497	-5.13081	0
60.2922	0.0094377	-5.07986	0
60.2944	0.0094186	-5.02764	0
60.2964	0.00939951	-4.97478	0
60.2982	0.00938042	-4.91746	0
60.3004	0.00939951	-4.86333	0
60.3024	0.00936133	-4.8092	0
60.3048	0.00947588	-4.74997	0
60.3072	0.00949497	-4.69457	0
60.3092	0.0094186	-4.63916	0
60.3116	0.00949497	-4.58885	0
60.3136	0.0094186	-4.53854	0
60.3164	0.00945679	-4.47549	0
60.3188	0.00951406	-4.42391	0
60.3214	0.00939951	-4.36404	0
60.324	0.0094186	-4.31309	0
60.3266	0.00955224	-4.26278	0
60.3292	0.00945679	-4.21184	0
60.3316	0.00945679	-4.16025	0
60.3344	0.0094377	-4.10357	0
60.3372	0.00953315	-4.04944	0
60.3404	0.00949497	-3.9934	0
60.3434	0.00945679	-3.93226	0
60.3468	0.0094377	-3.87749	0
60.35	0.00945679	-3.82527	0
60.3532	0.00949497	-3.77368	0
60.3564	0.0094377	-3.72274	0
60.3596	0.00947588	-3.66733	0
60.3632	0.0094377	-3.61129	0
60.3668	0.0094186	-3.56034	0
60.3702	0.00939951	-3.50875	0
60.4034	0.00947588	-3.10253	0
60.4082	0.0094186	-3.05083	0
60.413	0.00945679	-3.00041	0
60.418	0.00938042	-2.94916	0
60.423	0.00949497	-2.89836	0
60.4284	0.00947588	-2.84718	0
60.434	0.0094377	-2.79663	0
60.4398	0.00939951	-2.74596	0
60.4458	0.0094377	-2.69363	0
60.452	0.0094186	-2.64321	0
60.4584	0.00945679	-2.59234	0
60.4652	0.0094377	-2.5409	0
60.4722	0.0094186	-2.49042	0
60.4796	0.00938042	-2.4393	0
60.4872	0.00945679	-2.38843	0
60.4952	0.00947588	-2.33795	0
60.5034	0.0094377	-2.28778	0
60.5122	0.00938042	-2.2373	0
60.5212	0.0094377	-2.18669	0
60.5308	0.0094186	-2.13665	0
60.5408	0.00959042	-2.08636	0
60.5512	0.00934224	-2.03606	0
60.5624	0.00947588	-1.98603	0
60.5742	0.00949497	-1.93471	0
60.5868	0.0094377	-1.88455	0
60.6	0.00939951	-1.83394	0
60.6138	0.00938042	-1.78358	0
60.6288	0.00945679	-1.73297	0
60.6446	0.0094377	-1.68242	0
60.6616	0.00951406	-1.63188	0
60.6796	0.00938042	-1.5812	0
60.6988	0.00939951	-1.5311	0
60.7198	0.0094377	-1.48087	0
60.7418	0.00949497	-1.43051	0
60.766	0.00945679	-1.38048	0
60.7926	0.00945679	-1.32872	0
60.8218	0.00955224	-1.27855	0
60.8528	0.00947588	-1.22852	0
60.8868	0.00934224	-1.17822	0
60.9252	0.00949497	-1.12787	0
60.9672	0.00947588	-1.07751	0
61.0142	0.00945679	-1.02677	0
61.0668	0.00939951	-0.976542	0
61.1266	0.00939951	-0.92625	0
61.1948	0.00945679	-0.875511	0
61.2738	0.00938042	-0.825091	0
61.3634	0.00939951	-0.774926	0
61.4688	0.0094377	-0.724888	0
61.5932	0.00947588	-0.674531	0
61.7416	0.0094186	-0.624493	0
61.9186	0.00934224	-0.574391	0
62.1378	0.00951406	-0.523971	0
62.4064	0.00939951	-0.473933	0
62.7598	0.00939951	-0.423878	0
63.202	0.00953315	-0.373787	0
63.79	0.0094377	-0.323754	0
64.6132	0.00938042	-0.273689	0
65.0528	0.0094377	-0.253741	0
65.0534	0.00945679	-0.253104	0
66.5374	0.0094186	-0.203103	0
69.1138	0.0094377	-0.153064	0
74.5186	0.00938042	-0.103011	0
84.5186	0.00939951	-0.0656234	0
94.5186	0.00949497	-0.0480819	0
104.519	0.0094377	-0.0377952	0
114.519	0.0094377	-0.0309229	0
124.519	0.00947588	-0.0260174	0
134.519	0.00951406	-0.0222213	0
144.519	0.0094186	-0.0194124	0
154.519	0.0094377	-0.0171305	0
164.519	0.00953315	-0.0153254	0
174.519	0.00957133	-0.0137781	0
184.519	0.0094186	-0.0125337	0
194.519	0.00936133	-0.0113969	0
204.519	0.00949497	-0.0106038	0
214.519	0.0094377	-0.00978848	0
224.519	0.00945679	-0.00900622	0
234.519	0.00939951	-0.00843336	0
244.519	0.00947588	-0.00792353	0
254.519	0.0094377	-0.00748243	0
264.519	0.00947588	-0.00699933	0
274.519	0.00945679	-0.00671163	0
284.519	0.00955224	-0.00629217	0
294.519	0.00945679	-0.0059771	0
304.519	0.00947588	-0.00573587	0
314.519	0.0094377	-0.00545899	0
324.519	0.00945679	-0.0052133	0
334.519	0.00947588	-0.00494406	0
344.519	0.00939951	-0.00477093	0
354.519	0.00945679	-0.004643	0
364.519	0.00934224	-0.00441788	0
374.519	0.00947588	-0.00424472	0
384.519	0.0094186	-0.00415807	0
394.519	0.00945679	-0.00395525	0
395.319	0.00947588	-0.00391202	0
395.319	0.0094186	-0.00392297	0