Folder: SUMMER-JOB-2024-MATERIALS-PHYSICS/EXPERIMENTAL-DATA/Cycling-data-Master-thesis/I-cell (part 3)

File: 2024-04-29_JP-measurements_sample-A5.5-01_M-cell_Cu-Li-Cellgard2400-separator_25muL-LiFSI-in-DME_outside-glovebox_sigma-0.02_added-OCV-0.1s_Deltax109.9mm_04_CP_C03.txt
time/s	Ewe/V	I/mA	error
440.069	-0.0175588	-0.973819	0
440.069	-0.0376801	-0.979935	0
440.07	-0.0438835	-0.979878	0
440.071	-0.0490371	-0.979891	0
440.071	-0.0536943	-0.979929	0
440.072	-0.0581226	-0.979967	0
440.072	-0.0620736	-0.979935	0
440.073	-0.0658529	-0.979993	0
440.074	-0.0697085	-0.97991	0
440.074	-0.0731442	-0.979916	0
440.075	-0.0767326	-0.979935	0
440.075	-0.0800538	-0.979973	0
440.076	-0.0854555	-0.97998	0
440.077	-0.0896738	-0.979935	0
440.078	-0.0937966	-0.979923	0
440.079	-0.0985112	-0.979923	0
440.08	-0.102367	-0.97998	0
440.081	-0.106757	-0.979935	0
440.082	-0.112101	-0.979967	0
440.083	-0.117255	-0.979993	0
440.084	-0.122141	-0.97991	0
440.086	-0.126741	-0.97998	0
440.087	-0.131169	-0.979993	0
440.088	-0.135559	-0.979954	0
440.089	-0.139663	-0.979948	0
440.09	-0.143786	-0.979935	0
440.092	-0.147737	-0.979935	0
440.093	-0.15144	-0.979993	0
440.094	-0.155143	-0.979973	0
440.095	-0.158808	-0.979897	0
440.097	-0.162663	-0.97998	0
440.098	-0.165927	-0.979923	0
440.099	-0.169764	-0.979948	0
440.101	-0.173715	-0.979948	0
440.102	-0.17778	-0.979942	0
440.104	-0.181999	-0.979929	0
440.106	-0.185702	-0.979954	0
440.108	-0.189538	-0.979923	0
440.109	-0.193165	-0.979929	0
440.111	-0.196715	-0.979942	0
440.113	-0.200208	-0.979954	0
440.115	-0.203376	-0.979986	0
440.117	-0.207175	-0.979948	0
440.119	-0.210916	-0.97998	0
440.122	-0.214466	-0.979929	0
440.124	-0.218112	-0.980018	0
440.126	-0.221452	-0.97991	0
440.129	-0.22485	-0.979903	0
440.132	-0.228667	-0.980012	0
440.135	-0.23216	-0.980005	0
440.138	-0.235615	-0.97998	0
440.142	-0.238802	-0.979948	0
440.145	-0.242295	-0.979935	0
440.149	-0.245445	-0.979999	0
440.153	-0.248747	-0.979993	0
440.158	-0.251915	-0.979954	0
440.163	-0.255294	-0.97998	0
440.169	-0.258615	-0.979961	0
440.177	-0.261879	-0.979935	0
440.186	-0.265066	-0.979942	0
440.202	-0.268292	-0.980005	0
440.253	-0.265181	-0.979878	0
440.273	-0.262127	-0.979929	0
440.294	-0.258863	-0.979935	0
440.315	-0.255714	-0.979948	0
440.337	-0.252526	-0.979942	0
440.361	-0.249377	-0.979929	0
440.391	-0.246151	-0.980024	0
440.43	-0.243021	-0.979884	0
440.494	-0.239871	-0.979961	0
440.687	-0.236779	-0.979973	0
442.498	-0.23989	-0.979986	0
447.841	-0.242963	-0.979929	0
452.881	-0.246036	-0.980037	0
458.925	-0.249071	-0.979942	0
470.082	-0.251858	-0.979993	0
485.082	-0.251839	-0.980031	0
497.288	-0.249148	-0.979999	0
505.955	-0.246113	-0.979961	0
514.86	-0.243078	-0.979935	0
525.041	-0.240005	-0.979999	0
534.306	-0.236932	-0.97998	0
547.072	-0.234298	-0.979986	0
562.072	-0.232962	-0.979954	0
577.072	-0.233019	-0.980005	0
585.141	-0.229927	-0.979935	0
596.023	-0.228266	-0.979999	0
607.932	-0.231225	-0.979993	0
614.582	-0.234011	-0.979948	0
618.027	-0.232923	-0.979948	0
625.287	-0.233954	-0.979986	0
631.604	-0.235004	-0.979967	0
633.998	-0.238077	-0.980031	0
634.774	-0.241188	-0.97991	0
637.031	-0.240119	-0.979948	0
642.716	-0.239089	-0.980005	0
654.19	-0.241284	-0.979993	0
657.798	-0.242257	-0.979942	0
663.091	-0.239146	-0.980005	0
667.476	-0.242238	-0.98005	0
670.574	-0.243364	-0.979999	0
672.034	-0.246437	-0.979954	0
673.518	-0.249491	-0.979935	0
674.575	-0.252602	-0.980031	0
675.956	-0.255675	-0.97998	0
677.075	-0.258729	-0.979954	0
678.112	-0.25976	-0.979999	0
679.967	-0.26081	-0.979999	0
680.76	-0.263959	-0.980005	0
682.792	-0.26289	-0.979999	0
684.639	-0.261879	-0.97998	0
685.354	-0.258825	-0.980012	0
686.638	-0.255714	-0.979948	0
688.303	-0.252621	-0.980037	0
689.284	-0.249472	-0.98005	0
690.552	-0.246361	-0.979942	0
691.526	-0.243231	-0.979942	0
693.648	-0.246342	-0.980024	0
694.766	-0.249415	-0.979986	0
695.462	-0.252526	-0.979935	0
696.537	-0.255599	-0.979999	0
698.059	-0.254549	-0.979967	0
698.909	-0.251495	-0.979986	0
700.629	-0.248422	-0.97991	0
703.067	-0.247411	-0.980012	0
706.719	-0.244338	-0.980018	0
710.56	-0.245406	-0.980012	0
714.876	-0.244395	-0.979986	0
716.113	-0.241322	-0.980012	0
718.432	-0.238172	-0.97998	0
722.228	-0.237142	-0.979954	0
723.573	-0.240253	-0.979942	0
724.604	-0.243402	-0.979935	0
726.847	-0.246475	-0.979973	0
727.727	-0.249568	-0.980037	0
733.275	-0.248613	-0.979993	0
736.613	-0.247582	-0.979961	0
740.91	-0.250732	-0.979986	0
742.68	-0.253767	-0.980024	0
743.753	-0.256859	-0.979935	0
744.847	-0.259932	-0.979993	0
745.386	-0.263005	-0.980043	0
746.534	-0.266078	-0.980043	0
747.075	-0.26289	-0.979986	0
747.594	-0.259836	-0.979954	0
748.986	-0.256687	-0.979999	0
750.633	-0.259722	-0.979967	0
751.171	-0.262776	-0.979916	0
751.977	-0.265983	-0.980018	0
753.643	-0.26289	-0.980031	0
754.094	-0.259722	-0.979961	0
755.814	-0.256592	-0.980012	0
756.955	-0.253499	-0.980024	0
757.817	-0.250407	-0.979986	0
759.399	-0.251514	-0.97998	0
760.408	-0.254568	-0.980031	0
761.318	-0.25768	-0.980012	0
762.766	-0.256534	-0.979967	0
763.735	-0.259607	-0.980024	0
765.64	-0.258596	-0.98005	0
766.211	-0.261764	-0.979993	0
767.876	-0.260753	-0.979967	0
768.793	-0.261764	-0.980043	0
769.266	-0.264837	-0.980018	0
769.858	-0.267949	-0.980005	0
770.28	-0.271098	-0.980024	0
770.621	-0.274209	-0.979999	0
771.02	-0.277397	-0.97998	0
771.389	-0.280451	-0.979999	0
771.638	-0.2836	-0.980005	0
771.992	-0.286673	-0.979954	0
772.191	-0.289765	-0.979986	0
772.447	-0.292972	-0.979935	0
772.773	-0.291979	-0.979923	0
773.144	-0.29301	-0.979999	0
773.368	-0.292018	-0.980037	0
773.657	-0.293086	-0.979993	0
773.889	-0.294117	-0.980005	0
774.639	-0.295033	-0.979935	0
774.956	-0.298183	-0.980005	0
775.414	-0.301237	-0.979967	0
775.569	-0.304424	-0.979935	0
776.284	-0.305474	-0.980005	0
776.379	-0.306619	-0.980005	0
776.93	-0.307707	-0.980012	0
777.07	-0.308509	-0.979961	0
777.26	-0.30744	-0.980018	0
777.301	-0.304214	-0.979993	0
777.461	-0.303145	-0.979967	0
777.553	-0.302076	-0.979935	0
777.767	-0.301065	-0.980043	0
777.86	-0.30221	-0.980024	0
777.997	-0.303394	-0.980018	0
778.206	-0.302439	-0.979973	0
778.345	-0.303432	-0.979967	0
778.491	-0.302458	-0.979954	0
778.569	-0.301198	-0.980012	0
778.635	-0.302172	-0.979986	0
778.673	-0.301027	-0.980031	0
778.727	-0.302038	-0.980005	0
778.926	-0.300817	-0.979923	0
779.079	-0.304062	-0.980043	0
779.185	-0.302916	-0.98005	0
779.348	-0.304119	-0.979993	0
779.386	-0.300702	-0.980005	0
779.523	-0.299347	-0.980024	0
779.618	-0.298278	-0.979973	0
779.756	-0.297247	-0.979973	0
779.927	-0.296102	-0.980005	0
780.249	-0.292628	-0.979948	0
780.342	-0.289536	-0.980005	0
780.566	-0.286387	-0.979961	0
780.793	-0.283085	-0.979923	0
781.319	-0.282054	-0.979999	0
782.14	-0.283085	-0.980012	0
782.392	-0.28423	-0.979999	0
782.622	-0.283142	-0.979954	0
783.22	-0.280069	-0.979973	0
784.766	-0.279019	-0.979973	0
787.341	-0.277988	-0.980012	0
787.961	-0.281061	-0.980018	0
788.95	-0.284154	-0.980012	0
789.766	-0.287284	-0.979999	0
791.446	-0.288219	-0.980069	0
791.713	-0.287169	-0.979973	0
792.08	-0.286158	-0.979967	0
792.556	-0.285089	-0.979999	0
793.386	-0.284039	-0.980005	0
794.415	-0.287112	-0.980018	0
795.404	-0.2903	-0.979973	0
795.991	-0.293411	-0.980018	0
796.407	-0.296484	-0.979993	0
796.843	-0.297629	-0.980031	0
797.036	-0.29866	-0.979948	0
797.267	-0.29761	-0.979961	0
797.842	-0.29866	-0.979948	0
798.132	-0.299824	-0.980037	0
798.455	-0.302954	-0.980005	0
798.601	-0.304004	-0.980018	0
799.046	-0.307077	-0.979986	0
799.251	-0.310208	-0.98005	0
799.681	-0.311219	-0.979999	0
799.917	-0.314407	-0.97998	0
800.069	-0.314922	-0.979948	0