Folder: SUMMER-JOB-2024-MATERIALS-PHYSICS/EXPERIMENTAL/DATA/Electrochemical-cycling

Note: EXPERIMENTAL/DATA/Electrochemical-cycling/2024-06-14_S02_Icell_t0060_C0500_J01_deltaX-110,0mm_01_OCV_C06.txt
time/s	<Ewe/V>	error	
9.999999747378752E+000	2.7365744E+000	0
1.999999949475750E+001	2.7362220E+000	0
2.999999924213625E+001	2.7358708E+000	0
3.999999898951501E+001	2.7355163E+000	0
4.999999873689376E+001	2.7351689E+000	0
5.999979848427756E+001	2.7348220E+000	0

Note: EXPERIMENTAL/DATA/Electrochemical-cycling/2024-06-14_S03_Icell_t1800_C0500_J01_deltaX-110,0mm_01_OCV_C04.txt
time/s	<Ewe/V>	error	
9.999999747378752E+000	2.7007470E+000	0
1.999999949475750E+001	2.7004919E+000	0
2.999999924213625E+001	2.7001674E+000	0
3.999999898951501E+001	2.6998279E+000	0
4.999999873689376E+001	2.6994483E+000	0
5.999979848427756E+001	2.6990976E+000	0

File: 2024-06-14_S02_Icell_t0060_C0500_J01_deltaX-110,0mm_04_CP_C06.txt
time/s	Ewe/V	I/mA	error
120.206	0.0127631	-0.194771	0
120.206	0.00539875	-0.195978	0
120.207	0.00240133	-0.195982	0
120.208	-0.000424275	-0.195981	0
120.208	-0.00307805	-0.19598	0
120.209	-0.0053118	-0.195984	0
120.21	-0.00760283	-0.195982	0
120.211	-0.010142	-0.195987	0
120.212	-0.0132349	-0.19598	0
120.213	-0.0159842	-0.195985	0
120.214	-0.0183325	-0.195982	0
120.216	-0.0207762	-0.195977	0
120.217	-0.0234682	-0.195988	0
120.218	-0.0258738	-0.195976	0
120.219	-0.0282603	-0.195983	0
120.22	-0.0306086	-0.195986	0
120.222	-0.0331287	-0.19598	0
120.223	-0.0357634	-0.195978	0
120.225	-0.0382453	-0.195985	0
120.226	-0.0405554	-0.195982	0
120.227	-0.0429228	-0.195981	0
120.229	-0.0452139	-0.195978	0
120.23	-0.0477913	-0.195985	0
120.232	-0.0503305	-0.195983	0
120.234	-0.052717	-0.195979	0
120.235	-0.0549507	-0.19598	0
120.237	-0.0572608	-0.195981	0
120.239	-0.0596092	-0.195984	0
120.24	-0.0620911	-0.195984	0
120.242	-0.0642485	-0.195982	0
120.244	-0.0663104	-0.195983	0
120.246	-0.0685251	-0.195983	0
120.248	-0.0708161	-0.195978	0
120.25	-0.0732026	-0.195984	0
120.252	-0.0753409	-0.19598	0
120.254	-0.0775555	-0.195978	0
120.256	-0.0796938	-0.195983	0
120.258	-0.0820803	-0.195978	0
120.261	-0.0843713	-0.195976	0
120.263	-0.0867578	-0.195979	0
120.266	-0.0892016	-0.195983	0
120.269	-0.0914162	-0.195982	0
120.272	-0.0936882	-0.195984	0
120.274	-0.0958456	-0.195984	0
120.277	-0.098003	-0.195983	0
120.28	-0.100084	-0.19598	0
120.284	-0.102146	-0.195984	0
120.287	-0.104418	-0.195982	0
120.291	-0.106652	-0.195982	0
120.295	-0.108771	-0.195986	0
120.299	-0.111005	-0.195983	0
120.304	-0.113296	-0.195984	0
120.308	-0.115377	-0.195986	0
120.314	-0.117534	-0.195983	0
120.318	-0.11971	-0.195981	0
120.324	-0.121887	-0.19598	0
120.331	-0.124082	-0.195979	0
120.338	-0.126202	-0.195987	0
120.345	-0.128378	-0.195984	0
120.354	-0.130707	-0.195981	0
120.362	-0.13275	-0.195985	0
120.372	-0.134793	-0.195983	0
120.383	-0.136874	-0.19598	0
120.397	-0.139031	-0.195983	0
120.415	-0.141208	-0.195985	0
120.44	-0.14327	-0.195979	0
120.516	-0.143232	-0.195982	0
120.548	-0.141189	-0.195981	0
120.572	-0.139127	-0.195981	0
120.592	-0.137084	-0.195987	0
120.613	-0.135003	-0.195989	0
120.633	-0.132846	-0.195981	0
120.652	-0.130822	-0.195985	0
120.671	-0.128798	-0.195984	0
120.692	-0.126755	-0.195984	0
120.713	-0.124732	-0.195987	0
120.737	-0.12267	-0.195982	0
120.763	-0.120608	-0.195984	0
120.792	-0.118546	-0.195982	0
120.825	-0.116465	-0.195987	0
120.864	-0.114346	-0.195978	0
120.907	-0.112303	-0.195987	0
120.96	-0.110279	-0.195986	0
121.027	-0.108103	-0.195983	0
121.119	-0.105983	-0.195987	0
121.229	-0.103921	-0.195982	0
121.379	-0.10184	-0.195985	0
121.611	-0.0998167	-0.195978	0
121.999	-0.0977166	-0.195987	0
122.807	-0.0956356	-0.195981	0
130.683	-0.0955974	-0.195986	0
142.725	-0.0976975	-0.195986	0
162.725	-0.0987094	-0.195984	0
182.725	-0.0987666	-0.195987	0
202.725	-0.0984993	-0.19598	0
222.725	-0.098003	-0.195981	0
242.725	-0.0971629	-0.19599	0
262.725	-0.096361	-0.195989	0
282.725	-0.0955974	-0.195988	0
302.725	-0.0948337	-0.195988	0
322.725	-0.0939173	-0.195983	0
342.725	-0.0930582	-0.195985	0
362.725	-0.0924472	-0.195988	0
382.725	-0.0916835	-0.195984	0
402.725	-0.0910344	-0.195987	0
422.725	-0.0902898	-0.195992	0
442.725	-0.0895643	-0.195983	0
462.725	-0.0892589	-0.195992	0
482.725	-0.0886097	-0.195985	0
502.725	-0.0880561	-0.195986	0
522.725	-0.0875024	-0.195985	0
542.725	-0.0871206	-0.195987	0
562.725	-0.0866624	-0.195989	0
582.725	-0.086166	-0.195988	0
602.725	-0.0858414	-0.19598	0
622.725	-0.0854405	-0.195986	0
642.725	-0.0851923	-0.19599	0
662.725	-0.0847341	-0.195981	0
682.725	-0.084505	-0.195994	0
702.725	-0.0841422	-0.19598	0
722.725	-0.0839704	-0.195985	0
742.725	-0.0837222	-0.195989	0
762.725	-0.0833022	-0.195986	0
782.725	-0.083054	-0.195989	0
802.725	-0.0829204	-0.195989	0
822.725	-0.0825958	-0.195987	0
842.725	-0.0823476	-0.195986	0
862.725	-0.0820612	-0.195987	0
882.725	-0.0819276	-0.195986	0
902.725	-0.0817558	-0.195992	0
922.725	-0.081603	-0.195989	0
942.725	-0.0812594	-0.19599	0
962.725	-0.0812021	-0.195985	0
982.725	-0.0807821	-0.195989	0
1002.73	-0.0807057	-0.195981	0
1022.73	-0.0804384	-0.195985	0
1042.73	-0.0803048	-0.195988	0
1062.73	-0.0801711	-0.195988	0
1082.73	-0.0799038	-0.195985	0
1102.73	-0.0798656	-0.19599	0
1122.73	-0.0796938	-0.195995	0
1142.73	-0.0794838	-0.195988	0
1162.73	-0.0794838	-0.195984	0
1182.73	-0.0792929	-0.195982	0
1202.73	-0.0790829	-0.195987	0
1222.73	-0.0789492	-0.195987	0
1242.73	-0.0786629	-0.195985	0
1262.73	-0.0786247	-0.195994	0
1282.73	-0.0784719	-0.195985	0
1302.73	-0.0783956	-0.195982	0
1322.73	-0.0782428	-0.195983	0
1342.73	-0.078071	-0.195991	0
1362.73	-0.0778419	-0.195986	0
1382.73	-0.0778228	-0.195987	0
1402.73	-0.0777655	-0.195982	0
1422.73	-0.0776128	-0.19599	0
1442.73	-0.0774601	-0.195988	0
1462.73	-0.0774028	-0.195985	0
1482.73	-0.0772119	-0.19599	0
1502.73	-0.077231	-0.195988	0
1522.73	-0.0770401	-0.195988	0
1542.73	-0.0768491	-0.195994	0
1562.73	-0.0766964	-0.195987	0
1582.73	-0.0767537	-0.195988	0
1602.73	-0.0766009	-0.195987	0
1622.73	-0.0764864	-0.195987	0
1642.73	-0.0764482	-0.195985	0
1662.73	-0.0763146	-0.195995	0
1682.73	-0.0761618	-0.195989	0
1702.73	-0.0761618	-0.195985	0
1722.73	-0.0760473	-0.195984	0
1742.73	-0.0759327	-0.195985	0
1762.73	-0.0758373	-0.195988	0
1782.73	-0.0757609	-0.195985	0
1802.73	-0.0757609	-0.195985	0
1822.73	-0.0755891	-0.195989	0
1842.73	-0.0753027	-0.195985	0
1862.73	-0.0753218	-0.195985	0
1882.73	-0.0752836	-0.195988	0
1902.73	-0.0752645	-0.195987	0
1920.21	-0.07515	-0.195987	0

File: 2024-06-14_S04_Icell_t0020_C0500_J01_deltaX-110,1mm_02_MB_C04.txt
time/s	Ewe/V	I/mA	error
60.053	2.37662	-0.0250249	0
60.1432	0.00921272	-8.79328	0
60.1436	0.0092509	-8.72443	0
60.144	0.00934635	-8.65761	0
60.1444	0.00928908	-8.59085	0
60.1448	0.00930818	-8.52486	0
60.1452	0.00932727	-8.46097	0
60.1456	0.00926999	-8.39632	0
60.146	0.00934635	-8.33236	0
60.1464	0.00938454	-8.26968	0
60.1468	0.00932727	-8.20808	0
60.1472	0.00928908	-8.14743	0
60.1476	0.00934635	-8.08717	0
60.148	0.00930818	-8.02818	0
60.1484	0.00926999	-7.96899	0
60.1488	0.00936545	-7.91083	0
60.1492	0.0092509	-7.85407	0
60.1496	0.00926999	-7.79775	0
60.15	0.00936545	-7.74181	0
60.1504	0.00926999	-7.68594	0
60.1508	0.00940363	-7.63204	0
60.1512	0.00932727	-7.5782	0
60.1516	0.00938454	-7.52424	0
60.152	0.00934635	-7.47186	0
60.1524	0.00936545	-7.42006	0
60.1528	0.00930818	-7.36909	0
60.1532	0.00930818	-7.31805	0
60.1538	0.00926999	-7.24322	0
60.1544	0.00938454	-7.16965	0
60.155	0.00928908	-7.09851	0
60.1556	0.00938454	-7.02704	0
60.1562	0.00926999	-6.95685	0
60.1568	0.0092509	-6.88895	0
60.1574	0.00936545	-6.82143	0
60.158	0.00928908	-6.75423	0
60.1586	0.00932727	-6.69021	0
60.1592	0.00926999	-6.62581	0
60.1598	0.00932727	-6.563	0
60.1604	0.00944181	-6.50115	0
60.161	0.00936545	-6.44063	0
60.1616	0.00923181	-6.38075	0
60.1622	0.00930818	-6.32156	0
60.1628	0.00938454	-6.26436	0
60.1634	0.00936545	-6.20689	0
60.164	0.00942272	-6.15178	0
60.1646	0.00926999	-6.09648	0
60.1652	0.00928908	-6.04226	0
60.1658	0.00940363	-5.98824	0
60.1664	0.00934635	-5.93612	0
60.167	0.00940363	-5.88425	0
60.1676	0.0092509	-5.8336	0
60.1682	0.00926999	-5.78231	0
60.169	0.00938454	-5.71797	0
60.1698	0.00936545	-5.6537	0
60.1706	0.00926999	-5.5907	0
60.1714	0.00932727	-5.52859	0
60.1722	0.00932727	-5.46871	0
60.173	0.00928908	-5.40901	0
60.1738	0.00934635	-5.35123	0
60.1746	0.00930818	-5.29358	0
60.1754	0.00936545	-5.23719	0
60.1762	0.00938454	-5.18317	0
60.177	0.00940363	-5.12933	0
60.1778	0.00934635	-5.07664	0
60.1786	0.00936545	-5.02516	0
60.1794	0.00934635	-4.97418	0
60.1802	0.0094609	-4.9241	0
60.1812	0.00932727	-4.86295	0
60.1822	0.00934635	-4.80338	0
60.1832	0.0094609	-4.74503	0
60.1842	0.00936545	-4.68839	0
60.1852	0.00926999	-4.63239	0
60.1862	0.00930818	-4.57754	0
60.1872	0.00928908	-4.52478	0
60.1882	0.00934635	-4.47254	0
60.1892	0.00938454	-4.4215	0
60.1904	0.00934635	-4.36206	0
60.1916	0.00934635	-4.30434	0
60.1928	0.00930818	-4.24656	0
60.194	0.00928908	-4.19196	0
60.1952	0.00936545	-4.138	0
60.1964	0.00932727	-4.08594	0
60.1976	0.00942272	-4.03541	0
60.1988	0.00936545	-3.98425	0
60.2002	0.00938454	-3.92793	0
60.2016	0.00932727	-3.87225	0
60.203	0.0092509	-3.81809	0
60.2044	0.00928908	-3.76668	0
60.2058	0.00942272	-3.71659	0
60.2074	0.00940363	-3.66047	0
60.209	0.00930818	-3.60593	0
60.2106	0.00928908	-3.55241	0
60.2122	0.00932727	-3.50137	0
60.2138	0.00928908	-3.45116	0
60.2156	0.00936545	-3.3972	0
60.2174	0.00938454	-3.34464	0
60.2192	0.00923181	-3.29347	0
60.2212	0.00934635	-3.23906	0
60.2232	0.00936545	-3.18663	0
60.2252	0.00934635	-3.13572	0
60.2274	0.00942272	-3.0808	0
60.2296	0.00942272	-3.02868	0
60.2318	0.00942272	-2.97853	0
60.2342	0.00940363	-2.92565	0
60.2366	0.00928908	-2.87493	0
60.2392	0.00942272	-2.82192	0
60.2418	0.00923181	-2.77082	0
60.2446	0.00936545	-2.71896	0
60.2474	0.00940363	-2.66811	0
60.2504	0.00932727	-2.61523	0
60.2536	0.00940363	-2.56254	0
60.2568	0.00932727	-2.51138	0
60.2602	0.00938454	-2.45881	0
60.2638	0.00938454	-2.40758	0
60.2674	0.00926999	-2.35757	0
60.2712	0.00934635	-2.30729	0
60.2752	0.00938454	-2.25619	0
60.2794	0.00938454	-2.20573	0
60.284	0.00928908	-2.15291	0
60.2886	0.00936545	-2.10289	0
60.2936	0.00936545	-2.05192	0
60.2986	0.00934635	-2.00184	0
60.3042	0.00932727	-1.94991	0
60.31	0.00926999	-1.89957	0
60.316	0.00932727	-1.84911	0
60.3224	0.0092509	-1.79871	0
60.3294	0.00919363	-1.74786	0
60.3368	0.00934635	-1.69638	0
60.3446	0.00947999	-1.64522	0
60.3528	0.00932727	-1.59507	0
60.3618	0.00928908	-1.54492	0
60.3712	0.00932727	-1.49421	0
60.3814	0.00930818	-1.44419	0
60.3924	0.00932727	-1.39321	0
60.4042	0.00932727	-1.34294	0
60.417	0.00932727	-1.2921	0
60.431	0.00942272	-1.24157	0
60.4464	0.00930818	-1.19002	0
60.4632	0.00938454	-1.13956	0
60.4812	0.00928908	-1.08935	0
60.5012	0.00930818	-1.03908	0
60.5238	0.00930818	-0.988548	0
60.5488	0.0092509	-0.937957	0
60.5762	0.00936545	-0.887939	0
60.6078	0.00938454	-0.837284	0
60.6436	0.00940363	-0.787265	0
60.6844	0.00938454	-0.737056	0
60.7318	0.00940363	-0.686146	0
60.7874	0.00921272	-0.635682	0
60.8532	0.00928908	-0.585155	0
60.9314	0.00928908	-0.534818	0
61.0274	0.00932727	-0.484481	0
61.175	0.00930818	-0.424746	0
61.3362	0.00944181	-0.374645	0
61.5518	0.00942272	-0.324563	0
61.8572	0.00928908	-0.274526	0
62.3124	0.00932727	-0.22452	0
63.0616	0.00940363	-0.174483	0
64.4964	0.00938454	-0.124471	0
68.078	0.00942272	-0.0744593	0
78.078	0.00938454	-0.0363603	0
80.0528	0.00936545	-0.033073	0

File: 2024-06-14_S05_TPcell_t1800_C0500_J01_only-2-electrodes_04_CP_C09.txt
time/s	Ewe/V	I/mA	error
1860.21	0.00225088	-0.194651	0
1860.21	-0.00543122	-0.195984	0
1860.21	-0.00802703	-0.195982	0
1860.21	-0.0109664	-0.195984	0
1860.21	-0.0136767	-0.195985	0
1860.21	-0.0160053	-0.195978	0
1860.21	-0.0182576	-0.195984	0
1860.21	-0.0205862	-0.195979	0
1860.21	-0.0232393	-0.195982	0
1860.21	-0.0261405	-0.195982	0
1860.21	-0.0285836	-0.195985	0
1860.21	-0.0310458	-0.195983	0
1860.22	-0.033298	-0.195987	0
1860.22	-0.0360656	-0.195983	0
1860.22	-0.0384897	-0.195984	0
1860.22	-0.0410473	-0.195982	0
1860.22	-0.0434713	-0.19598	0
1860.22	-0.0458381	-0.195984	0
1860.22	-0.0481476	-0.195982	0
1860.22	-0.0503808	-0.195985	0
1860.23	-0.0529002	-0.195982	0
1860.23	-0.0554197	-0.195984	0
1860.23	-0.0575956	-0.19598	0
1860.23	-0.0599624	-0.195982	0
1860.23	-0.0623864	-0.195987	0
1860.23	-0.0646386	-0.195982	0
1860.23	-0.0673871	-0.195984	0
1860.24	-0.0696394	-0.195985	0
1860.24	-0.072197	-0.195984	0
1860.24	-0.0745447	-0.195988	0
1860.24	-0.0769688	-0.195985	0
1860.24	-0.0791256	-0.195977	0
1860.24	-0.0814732	-0.195979	0
1860.25	-0.0836492	-0.195982	0
1860.25	-0.0858823	-0.195982	0
1860.25	-0.0884018	-0.195983	0
1860.25	-0.0905013	-0.195983	0
1860.25	-0.0930971	-0.195978	0
1860.25	-0.095273	-0.19598	0
1860.26	-0.097468	-0.19598	0
1860.26	-0.0997775	-0.195986	0
1860.26	-0.102163	-0.19598	0
1860.26	-0.104587	-0.195987	0
1860.26	-0.106916	-0.19598	0
1860.27	-0.109054	-0.195984	0
1860.27	-0.111306	-0.195983	0
1860.27	-0.113673	-0.195978	0
1860.27	-0.116078	-0.195982	0
1860.28	-0.118521	-0.195988	0
1860.28	-0.120735	-0.195983	0
1860.28	-0.123006	-0.195982	0
1860.28	-0.125411	-0.195983	0
1860.29	-0.127549	-0.19598	0
1860.29	-0.129648	-0.195985	0
1860.29	-0.131824	-0.195978	0
1860.29	-0.134058	-0.195987	0
1860.3	-0.136157	-0.195983	0
1860.3	-0.138333	-0.195985	0
1860.3	-0.140585	-0.195989	0
1860.31	-0.142723	-0.195983	0
1860.31	-0.144765	-0.195981	0
1860.31	-0.146846	-0.195984	0
1860.32	-0.149003	-0.195984	0
1860.32	-0.151331	-0.195985	0
1860.32	-0.153526	-0.195984	0
1860.33	-0.155988	-0.195985	0
1860.33	-0.158164	-0.195982	0
1860.34	-0.160264	-0.195983	0
1860.34	-0.162344	-0.195982	0
1860.34	-0.164463	-0.195989	0
1860.35	-0.166753	-0.195987	0
1860.36	-0.168777	-0.195982	0
1860.36	-0.170914	-0.195987	0
1860.37	-0.173071	-0.195983	0
1860.38	-0.175171	-0.195985	0
1860.39	-0.177251	-0.195981	0
1860.43	-0.177327	-0.19598	0
1860.45	-0.175266	-0.195978	0
1860.46	-0.173147	-0.19598	0
1860.47	-0.170952	-0.195982	0
1860.47	-0.168891	-0.195983	0
1860.48	-0.166868	-0.195984	0
1860.49	-0.164826	-0.195984	0
1860.49	-0.162726	-0.195979	0
1860.5	-0.160493	-0.195985	0
1860.51	-0.158451	-0.195985	0
1860.52	-0.156351	-0.19598	0
1860.52	-0.15429	-0.195973	0
1860.53	-0.15219	-0.195987	0
1860.54	-0.150071	-0.195977	0
1860.55	-0.147934	-0.195985	0
1860.55	-0.145777	-0.19598	0
1860.56	-0.143735	-0.195981	0
1860.57	-0.141654	-0.195985	0
1860.58	-0.139593	-0.195985	0
1860.59	-0.137417	-0.195988	0
1860.6	-0.135241	-0.195984	0
1860.61	-0.133027	-0.195983	0
1860.63	-0.131004	-0.19598	0
1860.64	-0.128885	-0.195984	0
1860.66	-0.126862	-0.195987	0
1860.67	-0.124724	-0.195982	0
1860.69	-0.122529	-0.195984	0
1860.71	-0.120315	-0.195987	0
1860.74	-0.118158	-0.195991	0
1860.77	-0.116078	-0.195984	0
1860.8	-0.113959	-0.195987	0
1860.84	-0.111783	-0.195982	0
1860.89	-0.109703	-0.195985	0
1860.95	-0.10766	-0.195982	0
1861.03	-0.105599	-0.195988	0
1861.12	-0.103557	-0.195987	0
1861.27	-0.101438	-0.195983	0
1861.47	-0.0993385	-0.195982	0
1861.79	-0.0972772	-0.195988	0
1862.43	-0.0952158	-0.195991	0
1871.6	-0.0951776	-0.195987	0
1882.83	-0.0972199	-0.195989	0
1902.83	-0.0981933	-0.195982	0
1922.83	-0.098117	-0.195986	0
1942.83	-0.0974871	-0.195987	0
1962.83	-0.0966664	-0.195989	0
1982.83	-0.095693	-0.195989	0
2002.83	-0.0946432	-0.195986	0
2022.83	-0.0937461	-0.195992	0
2042.83	-0.0928108	-0.195983	0
2062.83	-0.0920283	-0.195989	0
2082.83	-0.0911885	-0.195991	0
2102.83	-0.0903868	-0.195983	0
2122.83	-0.0897188	-0.195989	0
2142.83	-0.0890698	-0.195985	0
2162.83	-0.0884209	-0.195992	0
2182.83	-0.0878864	-0.195985	0
2202.83	-0.0872375	-0.195991	0
2222.83	-0.0868748	-0.195988	0
2242.83	-0.0863977	-0.195984	0
2262.83	-0.0859396	-0.195989	0
2282.83	-0.0855388	-0.195985	0
2302.83	-0.0850616	-0.195987	0
2322.83	-0.0847753	-0.19599	0
2342.83	-0.0843935	-0.195981	0
2362.83	-0.0841454	-0.195982	0
2382.83	-0.0837828	-0.195989	0
2402.83	-0.0835728	-0.195989	0
2422.83	-0.0832292	-0.195987	0
2442.83	-0.0829239	-0.195984	0
2462.83	-0.0826185	-0.195986	0
2482.83	-0.0823322	-0.195987	0
2502.83	-0.0821031	-0.195984	0
2522.83	-0.0819695	-0.195987	0
2542.83	-0.0817023	-0.195996	0
2562.83	-0.0814542	-0.195988	0
2582.83	-0.0813206	-0.195989	0
2602.83	-0.0812251	-0.195989	0
2622.83	-0.0809961	-0.195981	0
2642.83	-0.0808052	-0.195986	0
2662.83	-0.0805762	-0.195988	0
2682.83	-0.0803471	-0.195991	0
2702.83	-0.0802326	-0.195987	0
2722.83	-0.0799463	-0.195983	0
2742.83	-0.0800036	-0.195988	0
2762.83	-0.0799272	-0.195984	0
2782.83	-0.0796409	-0.195988	0
2802.83	-0.0795837	-0.195984	0
2822.83	-0.0795073	-0.195991	0
2842.83	-0.0793355	-0.195983	0
2862.83	-0.079221	-0.195989	0
2882.83	-0.0788965	-0.195986	0
2902.83	-0.078992	-0.19599	0
2922.83	-0.0786866	-0.195984	0
2942.83	-0.0785148	-0.195989	0
2962.83	-0.0785911	-0.195985	0
2982.83	-0.0784384	-0.195985	0
3002.83	-0.0783812	-0.195989	0
3022.83	-0.0783239	-0.195983	0
3042.83	-0.0781521	-0.195986	0
3062.83	-0.0780949	-0.195989	0
3082.83	-0.0779804	-0.195982	0
3102.83	-0.0779422	-0.195994	0
3122.83	-0.0777322	-0.195983	0
3142.83	-0.0777704	-0.195987	0
3162.83	-0.0776941	-0.195986	0
3182.83	-0.0775032	-0.195985	0
3202.83	-0.0776177	-0.195985	0
3222.83	-0.0773696	-0.195987	0
3242.83	-0.0773123	-0.195986	0
3262.83	-0.0772741	-0.195992	0
3282.83	-0.0771405	-0.195991	0
3302.83	-0.0771214	-0.195985	0
3322.83	-0.0770451	-0.19599	0
3342.83	-0.0770069	-0.19599	0
3362.83	-0.0769497	-0.195991	0
3382.83	-0.0768542	-0.195985	0
3402.83	-0.0767779	-0.195984	0
3422.83	-0.0768733	-0.195988	0
3442.83	-0.0766252	-0.19598	0
3462.83	-0.0766634	-0.195984	0
3482.83	-0.0764916	-0.195984	0
3502.83	-0.0764534	-0.195981	0
3522.83	-0.0764343	-0.195985	0
3542.83	-0.0764152	-0.195985	0
3562.83	-0.0764534	-0.19599	0
3582.83	-0.0763771	-0.195982	0
3602.83	-0.0763007	-0.195982	0
3622.83	-0.0762435	-0.195987	0
3642.83	-0.0762625	-0.195991	0
3660.21	-0.0761671	-0.195978	0