Folder: SUMMER-JOB-2024-MATERIALS-PHYSICS/EXPERIMENTAL/DATA/Cycling data Master thesis/I-cell (part 2)

File: 2024-04-24_JP-measurements_sample-A6-01_M-cell_Cu-Li-Cellgard2400-separator_25muL-LiFSI-in-DME_outside-glovebox_sigma-0.02_added-OCV-0.1s_Deltax110.3mm_02_MB_C11.txt
time/s	Ewe/V	I/mA	error
60.053	2.73653	-0.025006	0
60.1732	0.00904193	-12.3309	0
60.1736	0.00911828	-12.2711	0
60.174	0.0090992	-12.2145	0
60.1744	0.00900376	-12.1553	0
60.1748	0.00896558	-12.093	0
60.1754	0.00892741	-12.0153	0
60.1758	0.00894649	-11.9651	0
60.1762	0.00906102	-11.9085	0
60.1766	0.00894649	-11.8468	0
60.1772	0.00894649	-11.7704	0
60.1776	0.00896558	-11.7183	0
60.178	0.00906102	-11.6629	0
60.1784	0.00906102	-11.6095	0
60.1788	0.00904193	-11.551	0
60.1794	0.00902284	-11.4765	0
60.18	0.00908011	-11.397	0
60.1806	0.00896558	-11.3168	0
60.181	0.00904193	-11.266	0
60.1816	0.00898467	-11.1928	0
60.182	0.0090992	-11.1387	0
60.1824	0.00896558	-11.084	0
60.183	0.00900376	-11.0109	0
60.1836	0.00896558	-10.9441	0
60.184	0.00902284	-10.8925	0
60.1844	0.00906102	-10.8404	0
60.1848	0.00906102	-10.7895	0
60.1854	0.00900376	-10.7189	0
60.186	0.00906102	-10.6533	0
60.1864	0.00906102	-10.6031	0
60.1868	0.00898467	-10.5522	0
60.1874	0.00900376	-10.4854	0
60.188	0.00906102	-10.4161	0
60.1884	0.00896558	-10.3652	0
60.189	0.00900376	-10.3003	0
60.1896	0.00900376	-10.2322	0
60.19	0.00894649	-10.1807	0
60.1906	0.00892741	-10.1234	0
60.1912	0.00906102	-10.0604	0
60.1918	0.00902284	-9.98729	0
60.1924	0.00900376	-9.91922	0
60.193	0.00904193	-9.85815	0
60.1936	0.00898467	-9.79962	0
60.1942	0.00902284	-9.73282	0
60.1948	0.00906102	-9.67366	0
60.1954	0.0090992	-9.61386	0
60.196	0.00896558	-9.54198	0
60.1968	0.00919464	-9.46882	0
60.1974	0.00904193	-9.40775	0
60.198	0.00904193	-9.34732	0
60.1986	0.00890832	-9.29388	0
60.1992	0.00902284	-9.22772	0
60.2	0.00908011	-9.1552	0
60.2006	0.00908011	-9.09985	0
60.2012	0.00915646	-9.0426	0
60.2018	0.00906102	-8.98534	0
60.2026	0.00902284	-8.91982	0
60.2032	0.00900376	-8.86129	0
60.2038	0.00900376	-8.79832	0
60.2046	0.00904193	-8.73534	0
60.2052	0.00898467	-8.67808	0
60.206	0.00898467	-8.61192	0
60.2066	0.00900376	-8.55721	0
60.2074	0.00906102	-8.49169	0
60.208	0.0090992	-8.44143	0
60.2086	0.00904193	-8.3899	0
60.2094	0.00894649	-8.32374	0
60.2102	0.00906102	-8.26458	0
60.2108	0.00908011	-8.20669	0
60.2116	0.00908011	-8.15135	0
60.2122	0.00902284	-8.09982	0
60.213	0.00902284	-8.04193	0
60.2136	0.00898467	-7.98722	0
60.2142	0.00898467	-7.93696	0
60.215	0.00906102	-7.87844	0
60.2158	0.00898467	-7.81927	0
60.2168	0.00904193	-7.74421	0
60.2176	0.00904193	-7.69268	0
60.2182	0.00902284	-7.64051	0
60.2192	0.00902284	-7.57881	0
60.22	0.00911828	-7.52219	0
60.2208	0.00896558	-7.46303	0
60.2216	0.00890832	-7.4115	0
60.2224	0.00900376	-7.35488	0
60.2232	0.00911828	-7.30335	0
60.224	0.00908011	-7.24674	0
60.2248	0.00900376	-7.19203	0
60.2256	0.00906102	-7.14177	0
60.2266	0.0090992	-7.08324	0
60.2276	0.00906102	-7.01645	0
60.2284	0.00908011	-6.96619	0
60.2294	0.00904193	-6.90385	0
60.2302	0.00900376	-6.85168	0
60.2312	0.00906102	-6.78998	0
60.2322	0.00906102	-6.73463	0
60.2332	0.00902284	-6.67738	0
60.234	0.00902284	-6.62458	0
60.2352	0.00896558	-6.55397	0
60.2362	0.00896558	-6.5018	0
60.2374	0.00896558	-6.43373	0
60.2384	0.00900376	-6.38157	0
60.2394	0.00902284	-6.32877	0
60.2404	0.00898467	-6.27533	0
60.2414	0.00906102	-6.2238	0
60.2424	0.00906102	-6.16846	0
60.2436	0.00902284	-6.11502	0
60.2444	0.00911828	-6.06285	0
60.2456	0.00908011	-6.00878	0
60.2468	0.00902284	-5.94962	0
60.248	0.00906102	-5.88982	0
60.2492	0.00898467	-5.83766	0
60.2502	0.00906102	-5.78676	0
60.2514	0.00902284	-5.73142	0
60.2526	0.00908011	-5.67989	0
60.2538	0.0090992	-5.62773	0
60.255	0.00904193	-5.57429	0
60.2564	0.00902284	-5.51513	0
60.2578	0.00902284	-5.45469	0
60.2592	0.00900376	-5.39744	0
60.2604	0.00902284	-5.34527	0
60.2618	0.00898467	-5.29311	0
60.2632	0.00900376	-5.23649	0
60.2648	0.00900376	-5.17033	0
60.2664	0.00900376	-5.11244	0
60.268	0.00900376	-5.05837	0
60.2694	0.0090992	-5.00302	0
60.271	0.00904193	-4.95213	0
60.2724	0.0090992	-4.89742	0
60.274	0.00900376	-4.84398	0
60.2758	0.00904193	-4.79118	0
60.2772	0.00904193	-4.73329	0
60.279	0.00900376	-4.68304	0
60.2806	0.00896558	-4.62515	0
60.2826	0.00900376	-4.57107	0
60.2844	0.0090992	-4.51573	0
60.2862	0.00917555	-4.46484	0
60.2878	0.00896558	-4.41394	0
60.2898	0.00896558	-4.36178	0
60.2918	0.00908011	-4.30771	0
60.2938	0.00900376	-4.25491	0
60.2958	0.00900376	-4.20401	0
60.2982	0.00917555	-4.1474	0
60.3004	0.00900376	-4.0946	0
60.3026	0.00904193	-4.03925	0
60.3046	0.00896558	-3.98645	0
60.307	0.00902284	-3.92983	0
60.3098	0.00898467	-3.87576	0
60.3126	0.00911828	-3.82105	0
60.315	0.00902284	-3.76698	0
60.318	0.0090992	-3.70018	0
60.321	0.00896558	-3.64929	0
60.3236	0.00911828	-3.5984	0
60.3266	0.00892741	-3.54432	0
60.3296	0.00906102	-3.49216	0
60.3326	0.00898467	-3.44127	0
60.3356	0.00900376	-3.39101	0
60.3392	0.00906102	-3.33757	0
60.3426	0.00896558	-3.28604	0
60.346	0.00908011	-3.23006	0
60.3496	0.00906102	-3.17981	0
60.3538	0.00902284	-3.12446	0
60.358	0.00902284	-3.06403	0
60.3622	0.00913737	-3.01377	0
60.3666	0.00894649	-2.96097	0
60.3708	0.0090992	-2.91071	0
60.4034	0.00902284	-2.6165	0
60.4092	0.00894649	-2.56485	0
60.4152	0.00902284	-2.51364	0
60.4214	0.00904193	-2.46314	0
60.428	0.00911828	-2.41295	0
60.4348	0.00898467	-2.362	0
60.4418	0.00900376	-2.31181	0
60.4492	0.00900376	-2.26099	0
60.457	0.00898467	-2.21087	0
60.465	0.00902284	-2.16049	0
60.4734	0.00911828	-2.11037	0
60.4824	0.00900376	-2.05986	0
60.4916	0.00902284	-2.00961	0
60.5014	0.00904193	-1.95879	0
60.512	0.00898467	-1.90752	0
60.5228	0.00896558	-1.85733	0
60.5344	0.00904193	-1.80702	0
60.5462	0.00911828	-1.75677	0
60.5592	0.00898467	-1.70594	0
60.573	0.00906102	-1.65569	0
60.5876	0.00894649	-1.60551	0
60.6032	0.00900376	-1.55392	0
60.6198	0.00911828	-1.50367	0
60.6378	0.00902284	-1.45297	0
60.6568	0.00902284	-1.40291	0
60.6774	0.00902284	-1.35203	0
60.7	0.00908011	-1.30044	0
60.7242	0.00902284	-1.25025	0
60.7508	0.00898467	-1.19988	0
60.7792	0.00906102	-1.14969	0
60.8106	0.00892741	-1.09944	0
60.845	0.00915646	-1.04925	0
60.8832	0.00900376	-0.999192	0
60.9254	0.00908011	-0.947605	0
60.974	0.00902284	-0.897037	0
61.0274	0.00906102	-0.846341	0
61.087	0.00902284	-0.795581	0
61.1564	0.00902284	-0.745203	0
61.2334	0.00898467	-0.695144	0
61.325	0.0090992	-0.644257	0
61.431	0.00906102	-0.593879	0
61.5598	0.00911828	-0.54331	0
61.7144	0.00911828	-0.492932	0
61.9032	0.00902284	-0.442809	0
62.1636	0.00894649	-0.392732	0
62.4748	0.00894649	-0.342716	0
62.8926	0.00900376	-0.292586	0
63.479	0.00908011	-0.242423	0
64.373	0.00902284	-0.19242	0
65.0528	0.00902284	-0.167141	0
65.0534	0.00906102	-0.166454	0
67.262	0.00917555	-0.116343	0
72.8346	0.00908011	-0.0662692	0
81.839	0.00908011	-0.0391313	0
81.8392	0.00902284	-0.039195	0

File: 2024-04-24_JP-measurements_sample-A6-01_M-cell_Cu-Li-Cellgard2400-separator_25muL-LiFSI-in-DME_outside-glovebox_sigma-0.02_added-OCV-0.1s_Deltax110.3mm_04_CP_C11.txt
time/s	Ewe/V	I/mA	error
81.9924	-0.0485788	-1.94506	0
81.9932	-0.0942702	-1.9595	0
81.994	-0.10954	-1.95955	0
81.9948	-0.122673	-1.95956	0
81.9956	-0.134526	-1.95955	0
81.9964	-0.14533	-1.95953	0
81.9972	-0.155504	-1.95955	0
81.998	-0.164685	-1.95957	0
81.9988	-0.173198	-1.9596	0
81.9996	-0.18112	-1.95963	0
82.0004	-0.188831	-1.95957	0
82.0012	-0.195665	-1.95963	0
82.002	-0.202097	-1.95962	0
82.0028	-0.208282	-1.95957	0
82.0036	-0.213912	-1.95959	0
82.0044	-0.219333	-1.95962	0
82.0052	-0.224468	-1.95962	0
82.006	-0.229278	-1.95956	0
82.0068	-0.233878	-1.95962	0
82.008	-0.240215	-1.9596	0
82.009	-0.245197	-1.95956	0
82.0106	-0.252241	-1.95965	0
82.0122	-0.258902	-1.95964	0
82.0138	-0.264896	-1.95958	0
82.0154	-0.27047	-1.95959	0
82.017	-0.275681	-1.95954	0
82.0186	-0.280472	-1.95961	0
82.0204	-0.285473	-1.95963	0
82.0228	-0.291371	-1.9596	0
82.025	-0.296505	-1.95964	0
82.0274	-0.301487	-1.95963	0
82.0298	-0.30624	-1.95967	0
82.0326	-0.311146	-1.9596	0
82.0354	-0.315841	-1.95955	0
82.0386	-0.320651	-1.95961	0
82.0418	-0.324965	-1.9596	0
82.0454	-0.329565	-1.95957	0
82.0492	-0.334204	-1.95961	0
82.0534	-0.338651	-1.95964	0
82.0578	-0.343022	-1.95956	0
82.0626	-0.347432	-1.95962	0
82.0684	-0.352223	-1.95963	0
82.0742	-0.35646	-1.95959	0
82.081	-0.360736	-1.95959	0
82.0902	-0.365145	-1.95962	0
82.1048	-0.369344	-1.95958	0
82.1848	-0.369306	-1.9596	0
82.2356	-0.365183	-1.95961	0
83.9424	-0.365164	-1.9596	0
85.8764	-0.361098	-1.95959	0
89.9202	-0.36524	-1.95961	0
91.5738	-0.369306	-1.95965	0
93.0854	-0.373467	-1.95961	0
94.5978	-0.377552	-1.95959	0
96.1542	-0.381618	-1.95962	0
97.919	-0.385722	-1.95963	0
99.9084	-0.389806	-1.95965	0
102.469	-0.393948	-1.95964	0
106.492	-0.398091	-1.95963	0
119.875	-0.399656	-1.95964	0
126.078	-0.395609	-1.9596	0
131.549	-0.391505	-1.95961	0
135.632	-0.387382	-1.95965	0
139.862	-0.383298	-1.95963	0
143.859	-0.379232	-1.95965	0
147.817	-0.375128	-1.95962	0
152.095	-0.370986	-1.95969	0
156.381	-0.366901	-1.95964	0
161.252	-0.362816	-1.95963	0
165.497	-0.358693	-1.95973	0
170.046	-0.354628	-1.95962	0
174.12	-0.350543	-1.95967	0
178.348	-0.346496	-1.95969	0
183.058	-0.34245	-1.95963	0
187.475	-0.338346	-1.9596	0
191.694	-0.334223	-1.95961	0
195.712	-0.330119	-1.9596	0
198.986	-0.326072	-1.95966	0
202.451	-0.321949	-1.95969	0
202.471	-0.315536	-1.95961	0
202.493	-0.308817	-1.95962	0
202.526	-0.299903	-1.95966	0
202.548	-0.301964	-1.95969	0
202.586	-0.295799	-1.95966	0
202.59	-0.290474	-1.9597	0
202.608	-0.28866	-1.95964	0
202.633	-0.291237	-1.95962	0
202.646	-0.283869	-1.95965	0
202.681	-0.288317	-1.95967	0
202.692	-0.286904	-1.95969	0
202.704	-0.291027	-1.95965	0
202.713	-0.288565	-1.95962	0
202.723	-0.283354	-1.95958	0
202.73	-0.279937	-1.95957	0
202.744	-0.274249	-1.95964	0
202.758	-0.276196	-1.95962	0
202.765	-0.280701	-1.95962	0
202.775	-0.28009	-1.95956	0
202.794	-0.27423	-1.95963	0
202.829	-0.27631	-1.95964	0
202.842	-0.27799	-1.9597	0
202.863	-0.271844	-1.95966	0
202.888	-0.27612	-1.95962	0
202.895	-0.278162	-1.95963	0
202.911	-0.272913	-1.95963	0
202.96	-0.266423	-1.95965	0
202.983	-0.260697	-1.95973	0
202.992	-0.256516	-1.95966	0
203.028	-0.249702	-1.95965	0
203.047	-0.248194	-1.95965	0
203.069	-0.247736	-1.95969	0
203.087	-0.249549	-1.95967	0
203.104	-0.24745	-1.9597	0
203.112	-0.244415	-1.9596	0
203.124	-0.241857	-1.95964	0
203.141	-0.246133	-1.9596	0
203.153	-0.245999	-1.95963	0
203.185	-0.24304	-1.95963	0
203.209	-0.24262	-1.95967	0
203.22	-0.242315	-1.95966	0
203.239	-0.24222	-1.95969	0
203.26	-0.246992	-1.95963	0
203.272	-0.246763	-1.95966	0
203.282	-0.244453	-1.95962	0
203.295	-0.2397	-1.95962	0
203.314	-0.237352	-1.95963	0
203.329	-0.23342	-1.95964	0
203.351	-0.230213	-1.95963	0
203.364	-0.228152	-1.95965	0
203.387	-0.22338	-1.9596	0
203.427	-0.225747	-1.95965	0
203.444	-0.219582	-1.95973	0
203.478	-0.215306	-1.95967	0
203.522	-0.219524	-1.95965	0
203.53	-0.219257	-1.95962	0
203.547	-0.221185	-1.9597	0
203.569	-0.215115	-1.95963	0
203.588	-0.214447	-1.95961	0
203.627	-0.212156	-1.95963	0
203.658	-0.214695	-1.95967	0
203.679	-0.21878	-1.95969	0
203.71	-0.216451	-1.95965	0
203.731	-0.211851	-1.95963	0
203.754	-0.206449	-1.9596	0
203.808	-0.208511	-1.95969	0
203.828	-0.213187	-1.95967	0
203.887	-0.209961	-1.95967	0
203.914	-0.204693	-1.95961	0
203.937	-0.200341	-1.95962	0
203.97	-0.199826	-1.95969	0
204.013	-0.199558	-1.95965	0
204.028	-0.194118	-1.95966	0
204.053	-0.194157	-1.95963	0
204.088	-0.192191	-1.95965	0
204.13	-0.190091	-1.95964	0
204.185	-0.190454	-1.95962	0
204.287	-0.18969	-1.95965	0
204.369	-0.189461	-1.95963	0
204.396	-0.184899	-1.95964	0
204.484	-0.189136	-1.95963	0
204.522	-0.188793	-1.95963	0
204.61	-0.186331	-1.95969	0
204.631	-0.182017	-1.95967	0
204.652	-0.17755	-1.95969	0
204.738	-0.175279	-1.95965	0
204.841	-0.175584	-1.95971	0
204.881	-0.173408	-1.95962	0
204.951	-0.173465	-1.95967	0
205.06	-0.16877	-1.95963	0
205.174	-0.166498	-1.95962	0
205.255	-0.166727	-1.95965	0
205.388	-0.166785	-1.95965	0
205.491	-0.168808	-1.95962	0
205.608	-0.164341	-1.95963	0
205.675	-0.164322	-1.95966	0
205.73	-0.159894	-1.95963	0
205.781	-0.159875	-1.95966	0
205.907	-0.160009	-1.9596	0
206.028	-0.157813	-1.95961	0
206.107	-0.155657	-1.95966	0
206.207	-0.151419	-1.95961	0
206.341	-0.153194	-1.95965	0
206.436	-0.150808	-1.95962	0
206.56	-0.148441	-1.95961	0
206.726	-0.148518	-1.95966	0
206.81	-0.143994	-1.95968	0
206.951	-0.139795	-1.95967	0
207.219	-0.135481	-1.9596	0
207.403	-0.135481	-1.95963	0
207.64	-0.134679	-1.95967	0
207.861	-0.130594	-1.95967	0
208.057	-0.130613	-1.95963	0
208.313	-0.130842	-1.95966	0
208.457	-0.130957	-1.95958	0
208.625	-0.1288	-1.95969	0
208.661	-0.123952	-1.95965	0
209.335	-0.123799	-1.9596	0
209.512	-0.121547	-1.95967	0
209.934	-0.1175	-1.9596	0
210.582	-0.115343	-1.95964	0
211.063	-0.11332	-1.95963	0
212.426	-0.111316	-1.95966	0
213.589	-0.109197	-1.95969	0
215.795	-0.111316	-1.95959	0
216.7	-0.113415	-1.95967	0
218.997	-0.115515	-1.95959	0
219.889	-0.119733	-1.95958	0
221.086	-0.121699	-1.95962	0
221.63	-0.121718	-1.95962	0
222.747	-0.121738	-1.95956	0
223.24	-0.121604	-1.95965	0
224.058	-0.121508	-1.95964	0
225.608	-0.12147	-1.95958	0
226.117	-0.119428	-1.95968	0
227.384	-0.12147	-1.95965	0
227.756	-0.119275	-1.9597	0
228.738	-0.121394	-1.95957	0
231.699	-0.119313	-1.95966	0
232.811	-0.115095	-1.95965	0
234.78	-0.112957	-1.95965	0
236.167	-0.110877	-1.95962	0
237.243	-0.108891	-1.95958	0
239.634	-0.108891	-1.9596	0
241.692	-0.106887	-1.9596	0
243.732	-0.109178	-1.95956	0
246.025	-0.111239	-1.95965	0
247.19	-0.106944	-1.95962	0
250.853	-0.10893	-1.95962	0
253.173	-0.106887	-1.95971	0
255.5	-0.104864	-1.95962	0
261.605	-0.107002	-1.95966	0
261.992	-0.10536	-1.95963	0

File: 2024-04-25_JP_sample-A4-02-extra_M-cell_Cu-Li-Cellgard2400-separator_25muL-LiFSI-in-DME_outside-glovebox_sigma-0.02_low-OCV_Deltax110.2mm_02_MB_C11.txt
time/s	Ewe/V	I/mA	error
60.053	2.2873	-0.025006	0
60.1432	0.0090992	-7.7691	0
60.1438	0.00906102	-7.7067	0
60.1444	0.00898467	-7.64589	0
60.145	0.00900376	-7.58565	0
60.1456	0.00908011	-7.52681	0
60.1462	0.00904193	-7.46975	0
60.1468	0.00894649	-7.41492	0
60.1474	0.00898467	-7.36098	0
60.148	0.00892741	-7.30736	0
60.1486	0.00900376	-7.25616	0
60.1492	0.00896558	-7.20476	0
60.15	0.00904193	-7.13899	0
60.1508	0.00906102	-7.07615	0
60.1516	0.00906102	-7.01445	0
60.1524	0.00900376	-6.95364	0
60.1532	0.00904193	-6.89499	0
60.154	0.00908011	-6.83787	0
60.1548	0.00904193	-6.78202	0
60.1556	0.00898467	-6.72846	0
60.1564	0.00904193	-6.67592	0
60.1572	0.00902284	-6.6244	0
60.1582	0.00892741	-6.56047	0
60.1592	0.00898467	-6.50074	0
60.1602	0.00894649	-6.44153	0
60.1612	0.00902284	-6.38485	0
60.1622	0.00894649	-6.32811	0
60.1632	0.00896558	-6.27385	0
60.1642	0.00898467	-6.22036	0
60.1652	0.00906102	-6.16915	0
60.1662	0.0090992	-6.11846	0
60.1674	0.00913737	-6.05987	0
60.1686	0.00906102	-6.00225	0
60.1698	0.00913737	-5.94748	0
60.171	0.00900376	-5.89252	0
60.1722	0.00900376	-5.84011	0
60.1734	0.00892741	-5.78922	0
60.1748	0.00898467	-5.72956	0
60.1762	0.00908011	-5.67415	0
60.1776	0.00902284	-5.62002	0
60.179	0.00892741	-5.56627	0
60.1804	0.00902284	-5.51418	0
60.1818	0.00911828	-5.46234	0
60.1834	0.0090992	-5.40719	0
60.185	0.00900376	-5.35217	0
60.1866	0.00902284	-5.29899	0
60.1882	0.00900376	-5.24785	0
60.1898	0.00892741	-5.19735	0
60.1916	0.0090992	-5.14239	0
60.1934	0.00908011	-5.08889	0
60.1952	0.00908011	-5.03769	0
60.197	0.00900376	-4.98674	0
60.199	0.00896558	-4.93267	0
60.201	0.00913737	-4.87899	0
60.2032	0.00896558	-4.82371	0
60.2052	0.00911828	-4.77352	0
60.2074	0.00906102	-4.7199	0
60.2096	0.00904193	-4.66895	0
60.2118	0.00898467	-4.61876	0
60.2142	0.00908011	-4.5661	0
60.2166	0.00900376	-4.51394	0
60.2192	0.00904193	-4.46006	0
60.2218	0.00900376	-4.40765	0
60.2244	0.00906102	-4.35708	0
60.2272	0.00898467	-4.30384	0
60.23	0.00913737	-4.25263	0
60.233	0.00906102	-4.19933	0
60.236	0.00904193	-4.14781	0
60.239	0.00904193	-4.09705	0
60.2422	0.00900376	-4.04648	0
60.2454	0.00906102	-3.99629	0
60.2488	0.00900376	-3.94445	0
60.2524	0.00898467	-3.89115	0
60.2562	0.00902284	-3.83816	0
60.26	0.00894649	-3.78638	0
60.2638	0.00904193	-3.73518	0
60.2678	0.00898467	-3.68442	0
60.272	0.0090992	-3.63239	0
60.2762	0.00898467	-3.58226	0
60.2806	0.00898467	-3.53125	0
60.2852	0.00904193	-3.48068	0
60.2898	0.00892741	-3.43056	0
60.2946	0.00898467	-3.3805	0
60.2996	0.00898467	-3.33031	0
60.3048	0.00898467	-3.27898	0
60.3104	0.00900376	-3.22612	0
60.3162	0.00913737	-3.17485	0
60.3222	0.00904193	-3.1225	0
60.3282	0.00908011	-3.07244	0
60.3344	0.00900376	-3.02143	0
60.341	0.00900376	-2.97035	0
60.3478	0.00917555	-2.91915	0
60.3548	0.00911828	-2.86902	0
60.362	0.00900376	-2.8189	0
60.3696	0.00904193	-2.76731	0
60.3776	0.00898467	-2.71719	0
60.3856	0.00900376	-2.66688	0
60.394	0.00896558	-2.61624	0
60.4028	0.00904193	-2.56599	0
60.4118	0.00902284	-2.51549	0
60.4216	0.00904193	-2.46403	0
60.4314	0.00896558	-2.41372	0
60.4418	0.00917555	-2.36283	0
60.4526	0.00900376	-2.31175	0
60.4638	0.00904193	-2.26144	0
60.4756	0.00900376	-2.20966	0
60.488	0.00898467	-2.15845	0
60.5006	0.00902284	-2.10827	0
60.5138	0.00902284	-2.05751	0
60.5276	0.0090992	-2.007	0
60.5422	0.00900376	-1.95656	0
60.5572	0.00906102	-1.90612	0
60.573	0.0090992	-1.85581	0
60.5896	0.00906102	-1.80447	0
60.607	0.00900376	-1.75422	0
60.6256	0.0090992	-1.70302	0
60.645	0.0090992	-1.65251	0
60.6656	0.00904193	-1.60169	0
60.687	0.00900376	-1.5515	0
60.7098	0.00906102	-1.50132	0
60.7338	0.00904193	-1.45119	0
60.7594	0.0090992	-1.40088	0
60.7868	0.00900376	-1.35069	0
60.8164	0.00900376	-1.3005	0
60.8482	0.00904193	-1.25	0
60.8826	0.00913737	-1.19994	0
60.9202	0.00906102	-1.14943	0
60.9606	0.00906102	-1.09931	0
61.006	0.00898467	-1.04906	0
61.0544	0.00902284	-0.998365	0
61.1108	0.00908011	-0.948305	0
61.1728	0.00908011	-0.897545	0
61.2438	0.00908011	-0.846786	0
61.3246	0.00904193	-0.796726	0
61.4172	0.00902284	-0.746412	0
61.5266	0.00902284	-0.696098	0
61.656	0.00915646	-0.646038	0
61.8164	0.0090992	-0.595851	0
62.0144	0.0090992	-0.545727	0
62.2728	0.00906102	-0.49554	0
62.6184	0.0090992	-0.445353	0
63.157	0.00900376	-0.395315	0
63.9338	0.00908011	-0.345287	0
65.0528	0.00898467	-0.302098	0
65.0534	0.00900376	-0.301487	0
67.4334	0.00906102	-0.251394	0
72.45	0.00894649	-0.201353	0
82.45	0.00902284	-0.154403	0
92.45	0.00911828	-0.129023	0
102.45	0.00900376	-0.112881	0
112.45	0.0090992	-0.100684	0
122.45	0.00894649	-0.0914141	0
132.45	0.00906102	-0.0841416	0
142.45	0.00915646	-0.0777091	0
152.45	0.00902284	-0.0724918	0
162.45	0.00900376	-0.0676117	0
172.45	0.00900376	-0.0635015	0
182.45	0.00904193	-0.0597412	0
192.45	0.00904193	-0.05642	0
202.45	0.00906102	-0.0532578	0
212.45	0.00911828	-0.0507636	0
222.45	0.00902284	-0.0480468	0
232.45	0.0090992	-0.0456227	0
242.45	0.00894649	-0.0438755	0
252.45	0.00894649	-0.0418342	0
262.45	0.00898467	-0.0399805	0
266.462	0.00902284	-0.0391123	0
266.463	0.00902284	-0.039284	0