Folder: SUMMER-JOB-2024-MATERIALS-PHYSICS/EXPERIMENTAL-DATA/Electrochemical-cycling/S-series

Note: EXPERIMENTAL-DATA/Electrochemical-cycling/S-series/2024-06-14_S05_TPcell_t1800_C0500_J01_only-2-electrodes_01_OCV_C09.txt
time/s	<Ewe/V>	error	
9.999999747378752E+000	2.9196851E+000	0
1.999999949475750E+001	2.9190946E+000	0
2.999999924213625E+001	2.9184914E+000	0
3.999999898951501E+001	2.9178755E+000	0
4.999999873689376E+001	2.9172552E+000	0
5.999979848427756E+001	2.9166412E+000	0

Note: EXPERIMENTAL-DATA/Electrochemical-cycling/S-series/2024-06-19_S06_Icell_t1800_C0001_J01_01_OCV_C10.txt
time/s	<Ewe>/V	error	<Ece>/V	
9.999999747378752E+000	2.8541219E+000	0	1.0560516E-005
1.999999949475750E+001	2.8539028E+000	0	9.8047476E-006
2.999999924213625E+001	2.8536861E+000	0	1.1117792E-005
3.999999898951501E+001	2.8534679E+000	0	1.2311713E-005
4.999999873689376E+001	2.8532505E+000	0	1.2116608E-005
5.999979848427756E+001	2.8530347E+000	0	1.1137958E-005

Note: EXPERIMENTAL-DATA/Electrochemical-cycling/S-series/2024-06-19_S07_Icell_t1800_C0003_J01_01_OCV_C09.txt
time/s	<Ewe>/V	error	<Ece>/V	
9.999999747378752E+000	2.8493130E+000	0	2.6754578E-005
1.999999949475750E+001	2.8495116E+000	0	2.7212334E-005
2.999999924213625E+001	2.8496161E+000	0	2.7254704E-005
3.999999898951501E+001	2.8496776E+000	0	2.7460061E-005
4.999999873689376E+001	2.8496971E+000	0	3.0973664E-005
5.999979848427756E+001	2.8496928E+000	0	3.1733023E-005

Note: EXPERIMENTAL-DATA/Electrochemical-cycling/S-series/2024-06-19_S08_Icell_t1800_C0010_J01_01_OCV_C10.txt
time/s	<Ewe>/V	error	<Ece>/V	
9.999999747378752E+000	2.8686790E+000	0	1.4835472E-005
1.999999949475750E+001	2.8684936E+000	0	1.4174946E-005
2.999999924213625E+001	2.8683136E+000	0	1.1788252E-005
3.999999898951501E+001	2.8681355E+000	0	1.3783591E-005
4.999999873689376E+001	2.8679607E+000	0	1.1751597E-005
5.999979848427756E+001	2.8677893E+000	0	1.0621357E-005

Note: EXPERIMENTAL-DATA/Electrochemical-cycling/S-series/2024-06-24_S11_TPcell_t1800_C0500_J01_01_OCV_C10.txt
time/s	<Ewe>/V	error	
9.999999747378752E+000	2.2296786E+000	0
1.999999949475750E+001	2.2299747E+000	0
2.999999924213625E+001	2.2302744E+000	0
3.999999898951501E+001	2.2305677E+000	0
4.999999873689376E+001	2.2308505E+000	0
5.999979848427756E+001	2.2311623E+000	0

Note: EXPERIMENTAL-DATA/Electrochemical-cycling/S-series/2024-06-25_S13_Icell_t0030_C0010_J01_deltaX-110,3mm_01_OCV_C06.txt
time/s	<Ewe/V>	error	
9.999999747378752E+000	2.8714521E+000	0
1.999999949475750E+001	2.8714557E+000	0
2.999999924213625E+001	2.8714595E+000	0
3.999999898951501E+001	2.8714643E+000	0
4.999999873689376E+001	2.8714683E+000	0
5.999979848427756E+001	2.8714814E+000	0

Note: EXPERIMENTAL-DATA/Electrochemical-cycling/S-series/2024-06-25_S14_Icell_t1800_C0003_J01_deltaX-110,2mm_01_OCV_C03.txt
time/s	<Ewe/V>	error	
9.999999747378752E+000	2.9508717E+000	0
1.999999949475750E+001	2.9500973E+000	0
2.999999924213625E+001	2.9493392E+000	0
3.999999898951501E+001	2.9485919E+000	0
4.999999873689376E+001	2.9478552E+000	0
5.999979848427756E+001	2.9471226E+000	0

Note: EXPERIMENTAL-DATA/Electrochemical-cycling/S-series/2024-06-27_S16_Icell_t1800_C0010_J01_deltaX-110,2mm_01_OCV_C03.txt
time/s	<Ewe/V>	error	<Ece>/V	Ewe-Ece/V	
9.999999747378752E+000	2.9296703E+000	0	9.2898563E-006	2.9296610E+000
1.999999949475750E+001	2.9291816E+000	0	1.0515004E-005	2.9291711E+000
2.999999924213625E+001	2.9286885E+000	0	9.6206486E-006	2.9286790E+000
3.999999898951501E+001	2.9282198E+000	0	1.1024211E-005	2.9282088E+000
4.999999873689376E+001	2.9277625E+000	0	1.1802907E-005	2.9277506E+000
5.999979848427756E+001	2.9273081E+000	0	1.3135661E-005	2.9272950E+000

Note: EXPERIMENTAL-DATA/Electrochemical-cycling/S-series/2024-06-27_S17_Icell_t1800_C0010_J01_deltaX-110,3mm_01_OCV_C04.txt
time/s	<Ewe/V>	error	<Ece>/V	Ewe-Ece/V	
9.999999747378752E+000	2.7990396E+000	0	-3.8778460E-005	2.7990785E+000
1.999999949475750E+001	2.7980292E+000	0	-3.9009868E-005	2.7980683E+000
2.999999924213625E+001	2.7970366E+000	0	-3.6640293E-005	2.7970734E+000
3.999999898951501E+001	2.7960489E+000	0	-3.4352415E-005	2.7960832E+000
4.999999873689376E+001	2.7950821E+000	0	-3.2888751E-005	2.7951150E+000
5.999979848427756E+001	2.7941232E+000	0	-3.6119745E-005	2.7941592E+000

Note: EXPERIMENTAL-DATA/Electrochemical-cycling/S-series/2024-06-27_S18_Icell_t1800_C0010_J01_deltaX-110,1mm_01_OCV_C05.txt
time/s	<Ewe/V>	error	<Ece>/V	Ewe-Ece/V	
9.999999747378752E+000	2.8186734E+000	0	-5.1245999E-005	2.8187246E+000
1.999999949475750E+001	2.8176982E+000	0	-5.0282288E-005	2.8177485E+000
2.999999924213625E+001	2.8167176E+000	0	-4.8102480E-005	2.8167658E+000
3.999999898951501E+001	2.8157439E+000	0	-4.8294121E-005	2.8157923E+000
4.999999873689376E+001	2.8147769E+000	0	-4.7958554E-005	2.8148248E+000
5.999979848427756E+001	2.8138199E+000	0	-4.8018152E-005	2.8138678E+000

Note: EXPERIMENTAL-DATA/Electrochemical-cycling/S-series/2024-07-02_S20_Icell_t1800_C0010_J01_deltaX-110,2mm_plating-stripping_01_OCV_C02.txt
time/s	<Ewe/V>	error	
9.999999747378752E+000	2.5798182E+000	0
1.999999949475750E+001	2.5798106E+000	0
2.999999924213625E+001	2.5798051E+000	0
3.999999898951501E+001	2.5798008E+000	0
4.999999873689376E+001	2.5797985E+000	0
5.999979848427756E+001	2.5797911E+000	0

Note: EXPERIMENTAL-DATA/Electrochemical-cycling/S-series/2024-07-02_S25_TPcell_t1800_C0500_J01_01_OCV_C02.txt
time/s	<Ewe>/V	error	
9.999999747378752E+000	2.6275845E+000	0
1.999999949475750E+001	2.6277623E+000	0
2.999999924213625E+001	2.6279480E+000	0
3.999999898951501E+001	2.6281362E+000	0
4.999999873689376E+001	2.6283233E+000	0
5.999979848427756E+001	2.6285100E+000	0

File: 2024-06-14_S02_Icell_t0060_C0500_J01_deltaX-110,0mm_02_MB_C06.txt
time/s	Ewe/V	I/mA	error
60.053	2.72445	-0.0250234	0
60.1432	0.00933218	-10.244	0
60.1436	0.00937036	-10.1447	0
60.144	0.00946582	-10.0471	0
60.1444	0.0092749	-9.95147	0
60.1448	0.00940854	-9.85765	0
60.1452	0.00940854	-9.76376	0
60.1456	0.00938945	-9.67236	0
60.146	0.00937036	-9.58293	0
60.1464	0.00931308	-9.4956	0
60.1468	0.00937036	-9.40801	0
60.1472	0.00942764	-9.32234	0
60.1476	0.009504	-9.23825	0
60.148	0.00944673	-9.15538	0
60.1484	0.00935127	-9.07441	0
60.1488	0.00940854	-8.99389	0
60.1492	0.00933218	-8.91541	0
60.1496	0.00942764	-8.83687	0
60.15	0.00940854	-8.76023	0
60.1504	0.00933218	-8.68493	0
60.1508	0.00944673	-8.61128	0
60.1512	0.00938945	-8.53853	0
60.1516	0.00942764	-8.46648	0
60.152	0.00935127	-8.39512	0
60.1524	0.00937036	-8.32625	0
60.1528	0.00948491	-8.25732	0
60.1532	0.00942764	-8.19035	0
60.1536	0.009504	-8.12282	0
60.154	0.009504	-8.05764	0
60.1544	0.00931308	-7.9924	0
60.1548	0.00938945	-7.92887	0
60.1552	0.00942764	-7.86675	0
60.1556	0.00937036	-7.80424	0
60.156	0.00933218	-7.74333	0
60.1564	0.00944673	-7.68311	0
60.1568	0.00933218	-7.62392	0
60.1572	0.00935127	-7.56619	0
60.1576	0.00944673	-7.50756	0
60.158	0.00944673	-7.45091	0
60.1584	0.00942764	-7.39426	0
60.1588	0.00938945	-7.33978	0
60.1592	0.00938945	-7.28631	0
60.1596	0.00944673	-7.23182	0
60.16	0.00938945	-7.17899	0
60.1604	0.00938945	-7.12597	0
60.1608	0.00935127	-7.07467	0
60.1612	0.00940854	-7.02394	0
60.1616	0.00948491	-6.9734	0
60.1622	0.00937036	-6.89931	0
60.1628	0.00938945	-6.82662	0
60.1634	0.00944673	-6.75647	0
60.164	0.00944673	-6.68601	0
60.1646	0.00937036	-6.61771	0
60.1652	0.00946582	-6.55024	0
60.1658	0.00942764	-6.48436	0
60.1664	0.00940854	-6.41925	0
60.167	0.009504	-6.35687	0
60.1676	0.00938945	-6.2943	0
60.1682	0.00937036	-6.23275	0
60.1688	0.00946582	-6.17291	0
60.1694	0.009504	-6.11397	0
60.17	0.00948491	-6.05662	0
60.1706	0.00944673	-5.99934	0
60.1712	0.00946582	-5.94485	0
60.1718	0.00948491	-5.88954	0
60.1724	0.00942764	-5.83505	0
60.173	0.00948491	-5.78216	0
60.1736	0.00940854	-5.73047	0
60.1742	0.00956128	-5.67885	0
60.175	0.009504	-5.61322	0
60.1758	0.00954219	-5.54747	0
60.1766	0.00948491	-5.48484	0
60.1774	0.00948491	-5.42214	0
60.1782	0.00942764	-5.36193	0
60.179	0.00940854	-5.30114	0
60.1798	0.00946582	-5.2422	0
60.1806	0.0095231	-5.18625	0
60.1814	0.00948491	-5.13062	0
60.1822	0.00944673	-5.076	0
60.183	0.00940854	-5.0226	0
60.1838	0.00940854	-4.96939	0
60.1848	0.00944673	-4.90605	0
60.1858	0.00938945	-4.84348	0
60.1868	0.00948491	-4.78295	0
60.1878	0.00937036	-4.72439	0
60.1888	0.009504	-4.66583	0
60.1898	0.00938945	-4.60899	0
60.1908	0.00938945	-4.55463	0
60.1918	0.00942764	-4.50091	0
60.1928	0.00946582	-4.44903	0
60.1938	0.00940854	-4.39716	0
60.195	0.00940854	-4.33771	0
60.1962	0.00944673	-4.2794	0
60.1974	0.00956128	-4.22377	0
60.1986	0.009504	-4.16852	0
60.1998	0.00942764	-4.11416	0
60.201	0.00940854	-4.06235	0
60.2022	0.00940854	-4.012	0
60.2036	0.00946582	-3.95465	0
60.205	0.00940854	-3.89845	0
60.2064	0.00944673	-3.84434	0
60.2078	0.00942764	-3.79139	0
60.2092	0.00946582	-3.74053	0
60.2106	0.009504	-3.69024	0
60.2122	0.00942764	-3.63506	0
60.2138	0.00946582	-3.58248	0
60.2154	0.00944673	-3.53111	0
60.217	0.00944673	-3.48038	0
60.2188	0.00944673	-3.42526	0
60.2206	0.00948491	-3.37288	0
60.2224	0.00948491	-3.32246	0
60.2244	0.00946582	-3.26696	0
60.2264	0.00940854	-3.21426	0
60.2284	0.00935127	-3.16378	0
60.2306	0.00942764	-3.10923	0
60.2328	0.00944673	-3.0571	0
60.235	0.00956128	-3.007	0
60.2374	0.00942764	-2.95405	0
60.2398	0.009504	-2.90236	0
60.2424	0.00938945	-2.84972	0
60.245	0.00954219	-2.79848	0
60.2478	0.00956128	-2.74712	0
60.2506	0.00944673	-2.69479	0
60.2536	0.00944673	-2.64355	0
60.2568	0.00948491	-2.59053	0
60.26	0.00946582	-2.53974	0
60.2634	0.00940854	-2.4885	0
60.267	0.00937036	-2.43656	0
60.2706	0.00937036	-2.38646	0
60.2744	0.00938945	-2.33605	0
60.2784	0.00944673	-2.28507	0
60.2828	0.00948491	-2.23224	0
60.2872	0.00942764	-2.18208	0
60.292	0.00944673	-2.12995	0
60.297	0.00938945	-2.07852	0
60.3022	0.00958037	-2.02811	0
60.3078	0.00944673	-1.97731	0
60.3136	0.0095231	-1.92582	0
60.3198	0.00940854	-1.87515	0
60.3262	0.00938945	-1.82467	0
60.3332	0.00937036	-1.77439	0
60.3406	0.00958037	-1.72334	0
60.3486	0.00942764	-1.67217	0
60.357	0.00940854	-1.62214	0
60.366	0.00946582	-1.57198	0
60.3756	0.009504	-1.52137	0
60.386	0.00944673	-1.46975	0
60.3974	0.00954219	-1.41909	0
60.4094	0.00946582	-1.36886	0
60.4226	0.00944673	-1.31864	0
60.437	0.00938945	-1.26817	0
60.4526	0.00944673	-1.21763	0
60.47	0.00942764	-1.16683	0
60.489	0.00942764	-1.1161	0
60.5096	0.00954219	-1.06588	0
60.533	0.00942764	-1.01566	0
60.559	0.00937036	-0.965249	0
60.588	0.00942764	-0.914901	0
60.621	0.009504	-0.864361	0
60.6582	0.00946582	-0.81414	0
60.7012	0.009504	-0.763601	0
60.7508	0.00942764	-0.713125	0
60.8086	0.009504	-0.66284	0
60.8766	0.00959946	-0.612619	0
60.957	0.00933218	-0.562334	0
61.0542	0.00948491	-0.512049	0
61.1752	0.00948491	-0.462019	0
61.3376	0.00954219	-0.412002	0
61.536	0.00948491	-0.361997	0
61.8026	0.00958037	-0.31196	0
62.183	0.00937036	-0.261949	0
62.763	0.0095231	-0.211886	0
63.7564	0.00948491	-0.161869	0
65.785	0.00954219	-0.111813	0
71.5376	0.009504	-0.0617953	0
81.5376	0.00956128	-0.0352072	0
91.5376	0.00940854	-0.0242824	0
101.538	0.00937036	-0.0183759	0
111.538	0.00937036	-0.014772	0
120.053	0.00944673	-0.0126412	0

File: 2024-06-14_S03_Icell_t1800_C0500_J01_deltaX-110,0mm_02_MB_C04.txt
time/s	Ewe/V	I/mA	error
60.053	2.69138	-0.0250249	0
60.1434	0.00930818	-10.3605	0
60.1438	0.00934635	-10.2394	0
60.1442	0.00930818	-10.1204	0
60.1446	0.00923181	-10.004	0
60.145	0.00936545	-9.88822	0
60.1454	0.00932727	-9.77532	0
60.1458	0.00930818	-9.66447	0
60.1462	0.00936545	-9.55546	0
60.1466	0.00930818	-9.44785	0
60.147	0.00928908	-9.34189	0
60.1474	0.00926999	-9.23836	0
60.1478	0.00938454	-9.13539	0
60.1482	0.0092509	-9.03529	0
60.149	0.00932727	-8.83891	0
60.1498	0.00921272	-8.64838	0
60.1506	0.00928908	-8.46479	0
60.1514	0.00928908	-8.28712	0
60.1522	0.00932727	-8.11472	0
60.153	0.00936545	-7.94736	0
60.1538	0.00936545	-7.78591	0
60.1546	0.00940363	-7.62975	0
60.1554	0.00930818	-7.47861	0
60.1562	0.00936545	-7.33091	0
60.157	0.00930818	-7.18951	0
60.1578	0.00923181	-7.05122	0
60.1586	0.00934635	-6.9167	0
60.1594	0.00936545	-6.78751	0
60.1602	0.00932727	-6.66247	0
60.161	0.00930818	-6.53984	0
60.1618	0.00923181	-6.42103	0
60.1626	0.00930818	-6.30623	0
60.1634	0.00936545	-6.19505	0
60.1642	0.00942272	-6.08617	0
60.165	0.00928908	-5.98111	0
60.1658	0.00930818	-5.87872	0
60.1668	0.00932727	-5.75647	0
60.168	0.00932727	-5.61341	0
60.1692	0.00932727	-5.47666	0
60.1704	0.00936545	-5.3455	0
60.1716	0.00928908	-5.22027	0
60.1728	0.00940363	-5.10012	0
60.174	0.00940363	-4.98468	0
60.1752	0.00932727	-4.87338	0
60.1764	0.00944181	-4.76654	0
60.1776	0.00932727	-4.66421	0
60.1792	0.00930818	-4.53445	0
60.1808	0.00942272	-4.41023	0
60.1824	0.00932727	-4.29238	0
60.184	0.00938454	-4.17917	0
60.1856	0.00928908	-4.0729	0
60.1872	0.0094609	-3.97076	0
60.1892	0.00940363	-3.85227	0
60.1912	0.00932727	-3.73778	0
60.1932	0.00928908	-3.63068	0
60.1954	0.0092509	-3.51996	0
60.1978	0.00936545	-3.40687	0
60.2002	0.00932727	-3.29952	0
60.2028	0.00940363	-3.19261	0
60.2056	0.00936545	-3.08379	0
60.2086	0.00936545	-2.97599	0
60.2118	0.00934635	-2.87124	0
60.2152	0.0094609	-2.76561	0
60.219	0.00940363	-2.65927	0
60.223	0.00938454	-2.55548	0
60.2274	0.00942272	-2.45149	0
60.2322	0.00934635	-2.3477	0
60.2374	0.00940363	-2.24677	0
60.2432	0.00936545	-2.14407	0
60.2498	0.0092509	-2.03913	0
60.257	0.00940363	-1.93661	0
60.265	0.00936545	-1.83384	0
60.274	0.00938454	-1.73106	0
60.2842	0.00942272	-1.6281	0
60.2958	0.00928908	-1.52545	0
60.309	0.00942272	-1.42236	0
60.324	0.00940363	-1.31959	0
60.3416	0.00944181	-1.21821	0
60.362	0.00928908	-1.11709	0
60.3864	0.00926999	-1.01642	0
60.4158	0.00934635	-0.915875	0
60.4532	0.00947999	-0.814565	0
60.5002	0.00942272	-0.714146	0
60.5638	0.00938454	-0.613791	0
60.6544	0.00942272	-0.513118	0
60.793	0.00938454	-0.412784	0
61.0262	0.00944181	-0.312544	0
61.4924	0.00942272	-0.212469	0
62.8328	0.00940363	-0.112407	0
75.228	0.00934635	-0.0235508	0
95.228	0.00936545	-0.010665	0
115.228	0.00928908	-0.00698829	0
135.228	0.00944181	-0.00511974	0
155.228	0.00936545	-0.00403237	0
175.228	0.00928908	-0.00339503	0
195.228	0.00936545	-0.00292741	0
215.228	0.00930818	-0.00254725	0
235.228	0.00934635	-0.00235742	0
255.228	0.00938454	-0.00206651	0
275.228	0.00932727	-0.00191316	0
295.228	0.00944181	-0.00177197	0
315.228	0.00938454	-0.00161779	0
335.228	0.00934635	-0.00150321	0
355.228	0.00934635	-0.00144878	0
375.228	0.00938454	-0.00137793	0
395.228	0.00944181	-0.0012631	0
415.228	0.00934635	-0.00121866	0
435.228	0.00940363	-0.00115214	0
455.228	0.00942272	-0.00111242	0
475.228	0.00940363	-0.00106404	0
495.228	0.00938454	-0.00101579	0
515.228	0.00919363	-0.000987971	0
535.228	0.00940363	-0.000950414	0
555.228	0.00926999	-0.000894523	0
575.228	0.00928908	-0.000884019	0
595.228	0.00936545	-0.0008816	0
615.228	0.00942272	-0.000827619	0
635.228	0.00934635	-0.000812914	0
655.228	0.00932727	-0.000803811	0
675.228	0.00938454	-0.000753204	0
695.228	0.00926999	-0.000729205	0
715.228	0.00938454	-0.00073207	0
735.228	0.00942272	-0.000693558	0
755.228	0.00934635	-0.000687128	0
775.228	0.00930818	-0.000977913	0
795.228	0.00936545	-0.000653008	0
815.228	0.00942272	-0.000609785	0
835.228	0.00928908	-0.000618442	0
855.228	0.00934635	-0.000671405	0
875.228	0.00940363	-0.00060291	0
895.228	0.00944181	-0.000588333	0
915.228	0.00940363	-0.000572737	0
935.228	0.00932727	-0.000546255	0
955.228	0.00936545	-0.000562742	0
975.228	0.00932727	-0.000567262	0
995.228	0.00938454	-0.000588524	0
1015.23	0.0094609	-0.000522957	0
1035.23	0.00934635	-0.000502778	0
1055.23	0.00928908	-0.000524612	0
1075.23	0.00940363	-0.000515254	0
1095.23	0.00949908	-0.000474386	0
1115.23	0.00930818	-0.000484062	0
1135.23	0.00936545	-0.00041996	0
1155.23	0.00944181	-0.00045217	0
1175.23	0.00934635	-0.000463565	0
1195.23	0.00940363	-0.000431354	0
1215.23	0.00938454	-0.000423397	0
1235.23	0.00940363	-0.00043371	0
1255.23	0.00934635	-0.000434855	0
1275.23	0.00938454	-0.000429636	0
1295.23	0.00932727	-0.000405892	0
1315.23	0.00940363	-0.000409711	0
1335.23	0.00944181	-0.000410411	0
1355.23	0.00930818	-0.000384885	0
1375.23	0.00942272	-0.000386922	0
1395.23	0.00928908	-0.000392205	0
1415.23	0.00938454	-0.00038202	0
1435.23	0.00934635	-0.000348664	0
1455.23	0.00938454	-0.000370753	0
1475.23	0.00936545	-0.000777648	0
1495.23	0.00936545	-0.000408756	0
1515.23	0.00940363	-0.000337651	0
1535.23	0.00936545	-0.000360504	0
1555.23	0.00932727	-0.000345545	0
1575.23	0.00938454	-0.000337269	0
1595.23	0.00932727	-0.000351019	0
1615.23	0.00928908	-0.000324411	0
1635.23	0.00928908	-0.000357512	0
1655.23	0.00940363	-0.000330267	0
1675.23	0.0092509	-0.000307032	0
1695.23	0.00934635	-0.000285834	0
1715.23	0.00926999	-0.000310915	0
1735.23	0.00934635	-0.000338479	0
1755.23	0.00934635	-0.000310915	0
1775.23	0.00936545	-0.000318109	0
1795.23	0.00938454	-0.000282843	0
1815.23	0.00938454	-0.000350956	0
1835.23	0.00940363	-0.000302895	0
1855.23	0.00930818	-0.000289336	0
1860.05	0.00938454	-0.000401372	0

File: 2024-06-14_S05_TPcell_t1800_C0500_J01_only-2-electrodes_02_MB_C09.txt
time/s	Ewe/V	I/mA	error
60.053	2.90672	-0.025008	0
60.1732	0.0084906	-6.1385	0
60.1738	0.0083379	-6.07937	0
60.1744	0.00845243	-6.02405	0
60.175	0.00841425	-5.96175	0
60.1756	0.00841425	-5.90707	0
60.1762	0.0084906	-5.84921	0
60.177	0.00847151	-5.78372	0
60.1776	0.00845243	-5.72587	0
60.1784	0.0083379	-5.65974	0
60.1792	0.00839516	-5.59489	0
60.1798	0.00841425	-5.53831	0
60.1806	0.00843334	-5.47091	0
60.1814	0.00837608	-5.41878	0
60.1822	0.00845243	-5.35711	0
60.1828	0.00841425	-5.30688	0
60.1836	0.00841425	-5.25029	0
60.1844	0.00837608	-5.19053	0
60.1854	0.00845243	-5.1225	0
60.1862	0.00839516	-5.06846	0
60.187	0.00843334	-5.01314	0
60.1878	0.00835699	-4.96037	0
60.1888	0.00843334	-4.89616	0
60.1898	0.00847151	-4.83321	0
60.1908	0.00843334	-4.77154	0
60.1918	0.00841425	-4.7175	0
60.1928	0.00847151	-4.66155	0
60.1938	0.00841425	-4.60051	0
60.1948	0.0084906	-4.54711	0
60.1958	0.00850969	-4.48861	0
60.197	0.00837608	-4.43012	0
60.198	0.00837608	-4.37799	0
60.1992	0.00831882	-4.32013	0
60.2006	0.00841425	-4.25782	0
60.2018	0.00841425	-4.20251	0
60.2028	0.00850969	-4.15101	0
60.2042	0.00843334	-4.10078	0
60.2054	0.00841425	-4.04928	0
60.2066	0.00847151	-3.99587	0
60.208	0.00847151	-3.93738	0
60.2094	0.00837608	-3.88397	0
60.2108	0.00843334	-3.8293	0
60.2124	0.0084906	-3.77716	0
60.214	0.00843334	-3.71676	0
60.2156	0.00841425	-3.66399	0
60.2174	0.00850969	-3.61122	0
60.219	0.00843334	-3.56036	0
60.2204	0.0084906	-3.51013	0
60.222	0.00841425	-3.45863	0
60.2242	0.00839516	-3.39505	0
60.226	0.00835699	-3.34355	0
60.2282	0.00843334	-3.29078	0
60.2302	0.00850969	-3.23674	0
60.2324	0.00845243	-3.18397	0
60.2346	0.00852877	-3.13247	0
60.2368	0.00850969	-3.07652	0
60.2392	0.00845243	-3.02502	0
60.2416	0.00845243	-2.97161	0
60.2442	0.00843334	-2.92139	0
60.2468	0.00835699	-2.86989	0
60.2498	0.00847151	-2.81712	0
60.2524	0.00841425	-2.76434	0
60.2556	0.00852877	-2.70903	0
60.259	0.00839516	-2.65372	0
60.2624	0.00841425	-2.60285	0
60.2656	0.00845243	-2.55072	0
60.2696	0.00839516	-2.49795	0
60.3032	0.00852877	-2.16227	0
60.3088	0.0084906	-2.11052	0
60.3146	0.00847151	-2.06017	0
60.321	0.00835699	-2.00893	0
60.3276	0.00843334	-1.95858	0
60.3346	0.00847151	-1.90817	0
60.3422	0.00841425	-1.8575	0
60.3502	0.0083379	-1.80734	0
60.359	0.0083379	-1.75597	0
60.3686	0.00837608	-1.7046	0
60.3788	0.00843334	-1.65457	0
60.3898	0.00847151	-1.60314	0
60.4018	0.00831882	-1.55202	0
60.4148	0.00850969	-1.5018	0
60.4292	0.00841425	-1.45062	0
60.445	0.00841425	-1.39964	0
60.4622	0.00847151	-1.34922	0
60.4816	0.00835699	-1.29849	0
60.503	0.00835699	-1.24763	0
60.527	0.00839516	-1.19754	0
60.5538	0.00850969	-1.14738	0
60.5842	0.00843334	-1.09702	0
60.619	0.00839516	-1.04667	0
60.659	0.00837608	-0.996642	0
60.706	0.00841425	-0.946418	0
60.7606	0.00839516	-0.896258	0
60.8248	0.0083379	-0.846035	0
60.904	0.00839516	-0.795811	0
60.999	0.00828064	-0.745779	0
61.1194	0.00843334	-0.695491	0
61.2698	0.00847151	-0.645268	0
61.4686	0.00831882	-0.595108	0
61.7322	0.0084906	-0.545012	0
62.0936	0.00845243	-0.494598	0
62.6752	0.00841425	-0.444567	0
63.468	0.00847151	-0.394561	0
64.7094	0.00839516	-0.344561	0
66.7412	0.00843334	-0.294522	0
70.23	0.0083379	-0.244446	0
76.4856	0.00845243	-0.194388	0
86.4856	0.00835699	-0.152074	0
96.4856	0.00837608	-0.127672	0
106.486	0.00839516	-0.111383	0
116.486	0.00847151	-0.0992998	0
126.486	0.00839516	-0.0900671	0
136.486	0.00843334	-0.0821706	0
146.486	0.00839516	-0.0758458	0
156.486	0.00839516	-0.070361	0
166.486	0.0084906	-0.0658305	0
176.486	0.00837608	-0.0617328	0
186.486	0.00856695	-0.0578004	0
196.486	0.0083379	-0.0550389	0
206.486	0.00843334	-0.0519592	0
216.486	0.00845243	-0.0495986	0
226.486	0.00841425	-0.047397	0
236.486	0.00841425	-0.04482	0
246.486	0.00845243	-0.0436037	0
256.486	0.00845243	-0.0417795	0
266.486	0.00843334	-0.0400636	0
276.486	0.0084906	-0.0385092	0
286.486	0.0084906	-0.0369428	0
296.486	0.00843334	-0.0356207	0
306.486	0.00843334	-0.0342795	0
316.486	0.00843334	-0.033021	0
326.486	0.0084906	-0.0318236	0
336.486	0.00835699	-0.0307057	0
346.486	0.00850969	-0.0296775	0
356.486	0.00841425	-0.028762	0
366.486	0.00835699	-0.0277707	0
376.486	0.00841425	-0.0268851	0
386.486	0.00850969	-0.0260758	0
396.486	0.00845243	-0.0252563	0
406.486	0.0084906	-0.0243776	0
416.486	0.0083379	-0.0236975	0
426.486	0.0083379	-0.023088	0
436.486	0.00847151	-0.0223264	0
446.486	0.0083379	-0.0216691	0
456.486	0.00847151	-0.0210488	0
466.486	0.00839516	-0.0204793	0
476.486	0.00841425	-0.0198355	0
486.486	0.00847151	-0.0193933	0
496.486	0.00847151	-0.0188283	0
506.486	0.00847151	-0.0183702	0
516.486	0.00839516	-0.0179299	0
526.486	0.00845243	-0.0174604	0
536.486	0.00847151	-0.0169965	0
546.486	0.00841425	-0.0166053	0
556.486	0.00850969	-0.0162375	0
566.486	0.00847151	-0.0158163	0
576.486	0.00845243	-0.0154708	0
586.486	0.00850969	-0.0150426	0
596.486	0.00847151	-0.0147156	0
606.486	0.00845243	-0.0144032	0
616.486	0.00837608	-0.0141494	0
626.486	0.00845243	-0.0138064	0
636.486	0.00839516	-0.0134648	0
646.486	0.0084906	-0.0132465	0
656.486	0.00850969	-0.0128584	0
666.486	0.00854786	-0.0125988	0
676.486	0.00847151	-0.0123672	0
686.486	0.00845243	-0.0121376	0
696.486	0.00845243	-0.0118894	0
706.486	0.0084906	-0.0116998	0
716.486	0.00843334	-0.0113906	0
726.486	0.00852877	-0.0112869	0
736.486	0.00841425	-0.0110171	0
746.486	0.00843334	-0.0108345	0
756.486	0.00843334	-0.0105991	0
766.486	0.00828064	-0.0103389	0
776.486	0.0084906	-0.0102027	0
786.486	0.00835699	-0.00999659	0
796.486	0.00839516	-0.0097879	0
806.486	0.00839516	-0.0095843	0
816.486	0.00841425	-0.00949205	0
826.486	0.00850969	-0.00929036	0
836.486	0.00845243	-0.00923373	0
846.486	0.00843334	-0.00901296	0
856.486	0.00850969	-0.00877118	0
866.486	0.00839516	-0.00868593	0
876.486	0.00845243	-0.00855359	0
886.486	0.0084906	-0.00834426	0
896.486	0.00845243	-0.00827237	0
906.486	0.00845243	-0.0081553	0
916.486	0.0084906	-0.00801469	0
926.486	0.00839516	-0.0078798	0
936.486	0.00847151	-0.00783018	0
946.486	0.0084906	-0.00762531	0
956.486	0.00841425	-0.00748152	0
966.486	0.00843334	-0.00736635	0
976.486	0.00845243	-0.00729191	0
986.486	0.00847151	-0.00723274	0
996.486	0.00847151	-0.00713794	0
1006.49	0.00845243	-0.00697697	0
1016.49	0.0084906	-0.00682237	0
1026.49	0.00841425	-0.00670848	0
1036.49	0.00850969	-0.00664231	0
1046.49	0.0084906	-0.00661686	0
1056.49	0.00843334	-0.00653542	0
1066.49	0.0083379	-0.00640244	0
1076.49	0.00847151	-0.00635791	0
1086.49	0.00829973	-0.00636618	0
1096.49	0.00847151	-0.00611423	0
1106.49	0.00841425	-0.00613777	0
1116.49	0.00850969	-0.00601624	0
1126.49	0.00841425	-0.00595453	0
1136.49	0.00843334	-0.00590554	0
1146.49	0.00845243	-0.00572357	0
1156.49	0.00847151	-0.00569176	0
1166.49	0.00845243	-0.00560205	0
1176.49	0.00841425	-0.00555879	0
1186.49	0.00845243	-0.00554033	0
1196.49	0.00845243	-0.00550407	0
1206.49	0.00835699	-0.00543599	0
1216.49	0.00839516	-0.00528329	0
1226.49	0.00847151	-0.00528266	0
1236.49	0.00839516	-0.00529284	0
1246.49	0.00847151	-0.00517831	0
1256.49	0.00845243	-0.00508287	0
1266.49	0.00839516	-0.00499571	0
1276.49	0.00845243	-0.00497789	0
1286.49	0.00841425	-0.00486464	0
1296.49	0.00847151	-0.0048271	0
1306.49	0.00841425	-0.00483474	0
1316.49	0.00843334	-0.00481374	0
1326.49	0.00843334	-0.0047253	0
1336.49	0.00847151	-0.00470049	0
1346.49	0.00845243	-0.00462732	0
1356.49	0.00850969	-0.00464768	0
1366.49	0.00852877	-0.00448544	0
1376.49	0.00845243	-0.00453699	0
1386.49	0.00843334	-0.00448761	0
1396.49	0.00843334	-0.00446419	0
1406.49	0.0084906	-0.00441252	0
1416.49	0.00847151	-0.00438439	0
1426.49	0.00841425	-0.00433577	0
1436.49	0.0084906	-0.0042862	0
1446.49	0.00839516	-0.00427462	0
1456.49	0.00854786	-0.00423835	0
1466.49	0.00850969	-0.00419228	0
1476.49	0.00839516	-0.00412737	0
1486.49	0.00837608	-0.00410961	0
1496.49	0.00847151	-0.00406921	0
1506.49	0.00831882	-0.00403141	0
1516.49	0.00841425	-0.00399253	0
1526.49	0.00839516	-0.00395084	0
1536.49	0.00850969	-0.00394658	0
1546.49	0.00852877	-0.00389192	0
1556.49	0.00843334	-0.00387022	0
1566.49	0.00841425	-0.00385176	0
1576.49	0.00843334	-0.00378189	0
1586.49	0.00843334	-0.0038181	0
1596.49	0.0084906	-0.00373499	0
1606.49	0.00841425	-0.00370967	0
1616.49	0.00837608	-0.00365863	0
1626.49	0.00856695	-0.00365297	0
1636.49	0.00858603	-0.00360677	0
1646.49	0.00850969	-0.00360861	0
1656.49	0.00843334	-0.00357591	0
1666.49	0.0084906	-0.00355281	0
1676.49	0.00847151	-0.00352525	0
1686.49	0.00845243	-0.00348605	0
1696.49	0.00847151	-0.00347956	0
1706.49	0.00845243	-0.00344342	0
1716.49	0.00843334	-0.00341128	0
1726.49	0.00847151	-0.0034137	0
1736.49	0.0084906	-0.00339639	0
1746.49	0.00847151	-0.00334937	0
1756.49	0.00850969	-0.0033535	0
1766.49	0.00837608	-0.00330737	0
1776.49	0.00841425	-0.00329438	0
1786.49	0.00841425	-0.00326066	0
1796.49	0.00839516	-0.00323756	0
1806.49	0.00843334	-0.00322445	0
1816.49	0.0084906	-0.00319912	0
1826.49	0.00845243	-0.0031815	0
1836.49	0.0084906	-0.00313313	0
1846.49	0.00845243	-0.00312441	0
1856.49	0.00845243	-0.00311392	0
1860.05	0.0084906	-0.00309801	0