Folder: SUMMER-JOB-2024-MATERIALS-PHYSICS/EXPERIMENTAL-DATA/Electrochemical-cycling/S-series (part 4)

File: 2024-06-25_S15_Icell_t1800_C0030_J01_deltaX-110,2mm_04_CP_C04.txt
time/s	Ewe/V	I/mA	error
1860.21	-0.00830263	-0.194721	0
1860.21	-0.0155991	-0.195979	0
1860.21	-0.0183495	-0.195979	0
1860.21	-0.0197621	-0.195976	0
1860.21	-0.0209839	-0.195985	0
1860.21	-0.0220911	-0.195983	0
1860.21	-0.0238283	-0.195975	0
1860.21	-0.0255846	-0.195981	0
1860.21	-0.0271309	-0.195979	0
1860.21	-0.0286009	-0.195979	0
1860.21	-0.029899	-0.195984	0
1860.21	-0.0311971	-0.195982	0
1860.21	-0.0325907	-0.195976	0
1860.21	-0.0337934	-0.195984	0
1860.21	-0.0349197	-0.195978	0
1860.21	-0.0361987	-0.195975	0
1860.21	-0.0375541	-0.195981	0
1860.21	-0.0386805	-0.195977	0
1860.21	-0.0399213	-0.195979	0
1860.21	-0.0409904	-0.195977	0
1860.21	-0.0420594	-0.195978	0
1860.21	-0.0431475	-0.195984	0
1860.21	-0.0444075	-0.195987	0
1860.21	-0.0454384	-0.195974	0
1860.21	-0.0464692	-0.195978	0
1860.21	-0.0480919	-0.195984	0
1860.22	-0.0495809	-0.19598	0
1860.22	-0.0511654	-0.195981	0
1860.22	-0.0522154	-0.195982	0
1860.22	-0.0535326	-0.195979	0
1860.22	-0.0550025	-0.195986	0
1860.22	-0.0560334	-0.195977	0
1860.22	-0.0574079	-0.195979	0
1860.22	-0.0588587	-0.19598	0
1860.22	-0.0602905	-0.195977	0
1860.22	-0.0616268	-0.195979	0
1860.22	-0.0629631	-0.19598	0
1860.22	-0.0644712	-0.195981	0
1860.22	-0.065693	-0.195979	0
1860.22	-0.0668575	-0.195977	0
1860.22	-0.0681938	-0.195975	0
1860.22	-0.0695492	-0.195978	0
1860.22	-0.0708664	-0.195981	0
1860.23	-0.0720118	-0.195977	0
1860.23	-0.0732909	-0.195981	0
1860.23	-0.0745699	-0.195982	0
1860.23	-0.075868	-0.195984	0
1860.23	-0.0770707	-0.195982	0
1860.23	-0.0782734	-0.195978	0
1860.23	-0.0795715	-0.195978	0
1860.23	-0.0805833	-0.195984	0
1860.23	-0.0816523	-0.195979	0
1860.23	-0.0829314	-0.195976	0
1860.23	-0.0840959	-0.19598	0
1860.23	-0.0851267	-0.19598	0
1860.23	-0.0864058	-0.195988	0
1860.23	-0.0876848	-0.195977	0
1860.23	-0.0888684	-0.195982	0
1860.23	-0.090262	-0.195982	0
1860.24	-0.0916937	-0.195981	0
1860.24	-0.0927437	-0.195982	0
1860.24	-0.0941945	-0.19598	0
1860.24	-0.0952827	-0.195983	0
1860.24	-0.0963326	-0.195981	0
1860.24	-0.0976308	-0.195986	0
1860.24	-0.0988907	-0.195979	0
1860.24	-0.0999216	-0.195978	0
1860.24	-0.101124	-0.195979	0
1860.24	-0.102155	-0.195975	0
1860.24	-0.103434	-0.195985	0
1860.24	-0.104751	-0.19598	0
1860.24	-0.106011	-0.195976	0
1860.24	-0.107214	-0.195979	0
1860.25	-0.108417	-0.195984	0
1860.25	-0.109619	-0.195984	0
1860.25	-0.110765	-0.195981	0
1860.25	-0.111948	-0.195978	0
1860.25	-0.113132	-0.195978	0
1860.25	-0.114277	-0.195977	0
1860.25	-0.115518	-0.195978	0
1860.25	-0.116587	-0.195979	0
1860.25	-0.117675	-0.195986	0
1860.25	-0.118744	-0.195985	0
1860.25	-0.119928	-0.195984	0
1860.25	-0.121283	-0.195989	0
1860.26	-0.122448	-0.195977	0
1860.26	-0.123651	-0.195984	0
1860.26	-0.124701	-0.195979	0
1860.26	-0.125884	-0.195981	0
1860.26	-0.126953	-0.195982	0
1860.26	-0.128156	-0.195977	0
1860.26	-0.129244	-0.195984	0
1860.26	-0.130389	-0.195981	0
1860.26	-0.131516	-0.195986	0
1860.26	-0.132718	-0.195978	0
1860.26	-0.133864	-0.195981	0
1860.27	-0.134952	-0.195981	0
1860.27	-0.136097	-0.195984	0
1860.27	-0.137357	-0.195979	0
1860.27	-0.138579	-0.195983	0
1860.27	-0.139648	-0.195981	0
1860.27	-0.140774	-0.195981	0
1860.27	-0.141958	-0.195981	0
1860.27	-0.143046	-0.19598	0
1860.27	-0.144115	-0.195981	0
1860.28	-0.145318	-0.195981	0
1860.28	-0.146463	-0.195983	0
1860.28	-0.14759	-0.195986	0
1860.28	-0.148659	-0.195982	0
1860.28	-0.149785	-0.195982	0
1860.28	-0.150816	-0.195981	0
1860.28	-0.151828	-0.19598	0
1860.28	-0.152897	-0.195985	0
1860.28	-0.153985	-0.195977	0
1860.29	-0.155264	-0.195986	0
1860.29	-0.156333	-0.195987	0
1860.29	-0.157421	-0.19598	0
1860.29	-0.158452	-0.195982	0
1860.29	-0.159502	-0.195982	0
1860.29	-0.160571	-0.195985	0
1860.29	-0.161583	-0.195983	0
1860.3	-0.162671	-0.195981	0
1860.3	-0.163683	-0.195983	0
1860.3	-0.16479	-0.195979	0
1860.3	-0.166031	-0.195985	0
1860.3	-0.167195	-0.195978	0
1860.3	-0.168283	-0.195977	0
1860.3	-0.169295	-0.195986	0
1860.31	-0.170307	-0.195986	0
1860.31	-0.171338	-0.195979	0
1860.31	-0.172407	-0.195981	0
1860.31	-0.173438	-0.195984	0
1860.31	-0.174488	-0.195979	0
1860.31	-0.175576	-0.19598	0
1860.32	-0.176702	-0.195987	0
1860.32	-0.177847	-0.195979	0
1860.32	-0.179184	-0.195981	0
1860.32	-0.180234	-0.195981	0
1860.33	-0.181303	-0.195981	0
1860.33	-0.182525	-0.195985	0
1860.33	-0.183575	-0.195986	0
1860.33	-0.184586	-0.195983	0
1860.33	-0.185713	-0.19598	0
1860.34	-0.186763	-0.195989	0
1860.34	-0.187774	-0.195982	0
1860.35	-0.188786	-0.195988	0
1860.37	-0.187717	-0.195979	0
1860.37	-0.186667	-0.195982	0
1860.37	-0.185522	-0.195981	0
1860.38	-0.184376	-0.195984	0
1860.38	-0.183365	-0.195985	0
1860.38	-0.182315	-0.195977	0
1860.38	-0.181284	-0.195981	0
1860.39	-0.180272	-0.195985	0
1860.39	-0.179241	-0.19598	0
1860.39	-0.178057	-0.195979	0
1860.39	-0.177008	-0.19598	0
1860.39	-0.175919	-0.195984	0
1860.4	-0.174755	-0.195979	0
1860.4	-0.173724	-0.195985	0
1860.4	-0.172598	-0.195981	0
1860.4	-0.171586	-0.195983	0
1860.4	-0.170421	-0.195982	0
1860.4	-0.169257	-0.195982	0
1860.41	-0.168226	-0.195987	0
1860.41	-0.167176	-0.195988	0
1860.41	-0.166126	-0.195987	0
1860.41	-0.164962	-0.195984	0
1860.41	-0.16395	-0.195985	0
1860.42	-0.162881	-0.195984	0
1860.42	-0.161697	-0.19598	0
1860.42	-0.160666	-0.195984	0
1860.42	-0.159597	-0.195985	0
1860.42	-0.158566	-0.195982	0
1860.43	-0.15744	-0.195982	0
1860.43	-0.156333	-0.195982	0
1860.43	-0.155302	-0.195985	0
1860.43	-0.154214	-0.195979	0
1860.43	-0.153164	-0.195986	0
1860.44	-0.151999	-0.195984	0
1860.44	-0.150835	-0.19598	0
1860.44	-0.149785	-0.195986	0
1860.44	-0.148716	-0.195981	0
1860.45	-0.14759	-0.195978	0
1860.45	-0.146463	-0.195986	0
1860.45	-0.145413	-0.195982	0
1860.45	-0.144402	-0.195981	0
1860.45	-0.143371	-0.195986	0
1860.46	-0.142244	-0.195985	0
1860.46	-0.141194	-0.195981	0
1860.46	-0.140106	-0.195981	0
1860.47	-0.138885	-0.195979	0
1860.47	-0.137701	-0.195986	0
1860.47	-0.136517	-0.195985	0
1860.48	-0.135448	-0.195982	0
1860.48	-0.13436	-0.195984	0
1860.48	-0.133272	-0.195982	0
1860.49	-0.132184	-0.195986	0
1860.49	-0.131019	-0.195987	0
1860.49	-0.129969	-0.195986	0
1860.5	-0.128862	-0.195982	0
1860.5	-0.127736	-0.195981	0
1860.51	-0.126552	-0.195979	0
1860.51	-0.125464	-0.195983	0
1860.52	-0.124376	-0.195983	0
1860.52	-0.123345	-0.195981	0
1860.53	-0.122276	-0.195982	0
1860.53	-0.121188	-0.195982	0
1860.54	-0.120157	-0.195984	0
1860.55	-0.119145	-0.195984	0
1860.55	-0.118057	-0.195975	0
1860.56	-0.117026	-0.195982	0
1860.57	-0.115976	-0.195981	0
1860.58	-0.114926	-0.195977	0
1860.59	-0.113896	-0.195982	0
1860.6	-0.112827	-0.195984	0
1860.61	-0.111757	-0.195982	0
1860.62	-0.110708	-0.195989	0
1860.64	-0.109696	-0.195984	0
1860.65	-0.108684	-0.195982	0
1860.67	-0.107634	-0.195981	0
1860.69	-0.106622	-0.195979	0
1860.72	-0.105591	-0.19598	0
1860.75	-0.104541	-0.195981	0
1860.79	-0.103491	-0.195984	0
1860.84	-0.102461	-0.195979	0
1860.92	-0.10143	-0.195984	0
1861.03	-0.10038	-0.195986	0
1861.29	-0.099368	-0.195974	0
1862.6	-0.10038	-0.195985	0
1863.4	-0.101392	-0.195985	0
1864.42	-0.102422	-0.195981	0
1865.62	-0.103472	-0.195984	0
1866.95	-0.104484	-0.195981	0
1868.47	-0.105496	-0.195986	0
1870.31	-0.106584	-0.195981	0
1872.55	-0.107596	-0.195989	0
1875.25	-0.108665	-0.195982	0
1878.47	-0.109734	-0.195984	0
1882.61	-0.110746	-0.195983	0
1887.52	-0.111757	-0.195978	0
1894.82	-0.112769	-0.195984	0
1904.82	-0.113094	-0.195981	0
1914.82	-0.113304	-0.195981	0
1924.82	-0.113399	-0.19599	0
1934.82	-0.113246	-0.195986	0
1944.82	-0.113036	-0.195979	0
1954.82	-0.112998	-0.195989	0
1964.82	-0.112483	-0.195986	0
1968.21	-0.112311	-0.195989	0

File: 2024-06-27_S16_Icell_t1800_C0010_J01_deltaX-110,2mm_02_MB_C03.txt
time/s	Ewe/V	I/mA	error	Ece/V
60.053	2.91528	-0.0250202	0	-0.000632264
60.1436	0.00919998	-6.55913	0	6.08409e-05
60.1444	0.00921907	-6.44741	0	0.000118098
60.1452	0.00929542	-6.34154	0	-7.27589e-05
60.146	0.00933359	-6.24082	0	-1.55018e-05
60.1472	0.00927633	-6.09722	0	-3.45875e-05
60.1484	0.00929542	-5.96247	0	-5.36732e-05
60.1496	0.00923816	-5.83446	0	4.17552e-05
60.1508	0.00925724	-5.71536	0	-5.36732e-05
60.152	0.00929542	-5.60141	0	7.99266e-05
60.1532	0.00931451	-5.49427	0	-1.55018e-05
60.1544	0.00931451	-5.3917	0	0.000213526
60.156	0.00925724	-5.26376	0	6.08409e-05
60.1576	0.00931451	-5.14516	0	-5.36732e-05
60.1592	0.00927633	-5.03102	0	2.26695e-05
60.1608	0.00916181	-4.92401	0	0.000118098
60.1624	0.00931451	-4.82228	0	4.17552e-05
60.1644	0.00933359	-4.704	0	-0.00011093
60.1664	0.00929542	-4.5912	0	6.08409e-05
60.1684	0.00939085	-4.48545	0	3.58385e-06
60.1706	0.0091809	-4.37583	0	6.08409e-05
60.173	0.00940994	-4.26245	0	-5.36732e-05
60.1754	0.00933359	-4.15595	0	-7.27589e-05
60.178	0.00925724	-4.0469	0	-7.27589e-05
60.1808	0.00925724	-3.93658	0	-3.45875e-05
60.1836	0.00933359	-3.83268	0	7.99266e-05
60.1868	0.00929542	-3.72032	0	-5.36732e-05
60.19	0.00929542	-3.61413	0	-9.18446e-05
60.1934	0.00933359	-3.50864	0	0.000118098
60.197	0.00929542	-3.40239	0	-1.55018e-05
60.201	0.00931451	-3.29277	0	6.08409e-05
60.205	0.00935268	-3.18843	0	4.17552e-05
60.2094	0.00933359	-3.08211	0	4.17552e-05
60.214	0.00931451	-2.97726	0	-5.36732e-05
60.2188	0.00927633	-2.87419	0	-1.55018e-05
60.224	0.00933359	-2.76991	0	4.17552e-05
60.2296	0.00923816	-2.66538	0	-3.45875e-05
60.2354	0.00925724	-2.56339	0	-3.45875e-05
60.2418	0.00933359	-2.45956	0	2.26695e-05
60.2488	0.00927633	-2.35464	0	9.90123e-05
60.256	0.00921907	-2.25367	0	9.90123e-05
60.264	0.00927633	-2.15156	0	-7.27589e-05
60.2726	0.00939085	-2.049	0	-3.45875e-05
60.282	0.00935268	-1.94745	0	3.58385e-06
60.2922	0.00929542	-1.84604	0	6.08409e-05
60.3034	0.00929542	-1.74526	0	-0.00011093
60.3158	0.00923816	-1.64378	0	2.26695e-05
60.3294	0.00929542	-1.54306	0	-5.36732e-05
60.3448	0.00929542	-1.44139	0	6.08409e-05
60.362	0.00923816	-1.34036	0	6.08409e-05
60.3818	0.00927633	-1.2385	0	2.26695e-05
60.404	0.00937177	-1.13778	0	0.000118098
60.43	0.00933359	-1.0365	0	-3.45875e-05
60.4604	0.00927633	-0.935589	0	7.99266e-05
60.4974	0.00929542	-0.835128	0	4.17552e-05
60.543	0.00923816	-0.73403	0	-9.18446e-05
60.601	0.00931451	-0.633251	0	-3.45875e-05
60.6788	0.00925724	-0.532281	0	4.17552e-05
60.789	0.00925724	-0.431692	0	-3.45875e-05
60.9708	0.00935268	-0.326722	0	0.000194441
61.279	0.00935268	-0.226568	0	4.17552e-05
62.0156	0.00931451	-0.126522	0	3.58385e-06
67.5172	0.00931451	-0.0264468	0	-3.45875e-05
87.5172	0.00929542	-0.0071179	0	2.26695e-05
107.517	0.00935268	-0.00420486	0	-3.45875e-05
127.517	0.00933359	-0.00296038	0	4.17552e-05
147.517	0.00935268	-0.00233099	0	4.17552e-05
167.517	0.00925724	-0.00197476	0	-5.36732e-05
187.517	0.00923816	-0.00168428	0	-5.36732e-05
207.517	0.00929542	-0.00156462	0	7.99266e-05
227.517	0.00933359	-0.00131678	0	2.26695e-05
247.517	0.00923816	-0.00126555	0	4.17552e-05
267.517	0.00925724	-0.00108327	0	7.99266e-05
287.517	0.00927633	-0.00108511	0	7.99266e-05
307.517	0.00933359	-0.000920078	0	6.08409e-05
327.517	0.00914272	-0.000925042	0	0.000118098
347.517	0.00935268	-0.000983469	0	-5.36732e-05
367.517	0.0091809	-0.000914222	0	9.90123e-05
387.517	0.00925724	-0.000866169	0	2.26695e-05
407.517	0.00931451	-0.00078623	0	6.08409e-05
427.517	0.00921907	-0.000766181	0	0.000156269
447.517	0.00939085	-0.000743587	0	-3.45875e-05
467.517	0.00935268	-0.000852804	0	0.000194441
487.517	0.00925724	-0.000782474	0	9.90123e-05
507.517	0.00925724	-0.000677013	0	-5.36732e-05
527.517	0.00925724	-0.000660974	0	0.000118098
547.517	0.00923816	-0.000628642	0	7.99266e-05
567.517	0.00919998	-0.000634433	0	7.99266e-05
587.517	0.00933359	-0.000631824	0	6.08409e-05
607.517	0.00931451	-0.000577534	0	0.000156269
627.517	0.00933359	-0.000625778	0	9.90123e-05
647.517	0.00921907	-0.000520252	0	0.000118098
667.517	0.00929542	-0.000567223	0	2.26695e-05
687.517	0.0094672	-0.000672176	0	-3.45875e-05
707.517	0.00929542	-0.000564295	0	0.000137184
727.517	0.00937177	-0.000602037	0	3.58385e-06
747.517	0.00923816	-0.000487029	0	4.17552e-05
767.517	0.00935268	-0.000549848	0	-5.36732e-05
787.517	0.00935268	-0.00058288	0	9.90123e-05
807.517	0.00923816	-0.000487283	0	6.08409e-05
827.517	0.00931451	-0.000463161	0	3.58385e-06
847.517	0.00940994	-0.000505104	0	7.99266e-05
867.517	0.00929542	-0.000413836	0	4.17552e-05
887.517	0.00925724	-0.000579507	0	-1.55018e-05
907.517	0.00931451	-0.000430002	0	6.08409e-05
927.517	0.00925724	-0.00046157	0	3.58385e-06
947.517	0.00929542	-0.000502177	0	0.000118098
967.517	0.00923816	-0.000411863	0	9.90123e-05
987.517	0.00931451	-0.000560413	0	-3.45875e-05
1007.52	0.00921907	-0.000398879	0	0.000156269
1027.52	0.00921907	-0.000387804	0	4.17552e-05
1047.52	0.00933359	-0.000419373	0	2.26695e-05
1067.52	0.00927633	-0.00044655	0	4.17552e-05
1087.52	0.00925724	-0.00045616	0	-1.55018e-05
1107.52	0.00923816	-0.000445722	0	3.58385e-06
1127.52	0.00935268	-0.000382713	0	-9.18446e-05
1147.52	0.00923816	-0.000399452	0	0.000118098
1167.52	0.00929542	-0.000382203	0	3.58385e-06
1187.52	0.00935268	-0.000376603	0	0.000156269
1207.52	0.00933359	-0.000477418	0	2.26695e-05
1227.52	0.00927633	-0.000495048	0	3.58385e-06
1247.52	0.00925724	-0.000431275	0	9.90123e-05
1267.52	0.00925724	-0.000346307	0	3.58385e-06
1287.52	0.00935268	-0.000358082	0	0.000156269
1307.52	0.00933359	-0.000418927	0	0.000118098
1327.52	0.00931451	-0.000347325	0	9.90123e-05
1347.52	0.00927633	-0.000406898	0	0.000118098
1367.52	0.00925724	-0.000382267	0	3.58385e-06
1387.52	0.00927633	-0.000341661	0	-7.27589e-05
1407.52	0.00925724	-0.000300673	0	0.000118098
1427.52	0.00916181	-0.000424465	0	6.08409e-05
1447.52	0.00925724	-0.000361137	0	2.26695e-05
1467.52	0.00929542	-0.000409762	0	2.26695e-05
1487.52	0.00939085	-0.000343761	0	9.90123e-05
1507.52	0.00925724	-0.000398561	0	2.26695e-05
1527.52	0.00925724	-0.000511724	0	0.000175355
1547.52	0.00929542	-0.000381376	0	6.08409e-05
1567.52	0.00925724	-0.000342806	0	3.58385e-06
1587.52	0.00933359	-0.000290935	0	0.000118098
1607.52	0.00931451	-0.000390541	0	0.000137184
1627.52	0.00933359	-0.000358845	0	-9.18446e-05
1647.52	0.00929542	-0.000340197	0	9.90123e-05
1667.52	0.00937177	-0.000299909	0	-3.45875e-05
1687.52	0.00935268	-0.000364001	0	3.58385e-06
1707.52	0.00937177	-0.000457433	0	7.99266e-05
1727.52	0.00925724	-0.000314102	0	4.17552e-05
1747.52	0.00923816	-0.000358845	0	4.17552e-05
1767.52	0.00923816	-0.000314357	0	4.17552e-05
1787.52	0.00944812	-0.000430766	0	2.26695e-05
1807.52	0.00921907	-0.000278206	0	3.58385e-06
1827.52	0.00925724	-0.00025192	0	4.17552e-05
1847.52	0.00919998	-0.000258921	0	7.99266e-05
1860.05	0.00937177	-0.000310092	0	0.000118098

File: 2024-06-27_S16_Icell_t1800_C0010_J01_deltaX-110,2mm_04_CP_C03.txt
time/s	Ewe/V	I/mA	error	Ece/V
1860.21	-0.000468626	-0.194805	0	-0.000552092
1860.21	-0.00487841	-0.195993	0	-0.000231407
1860.21	-0.0073001	-0.196	0	0.000137184
1860.21	-0.00886525	-0.195996	0	3.58385e-06
1860.21	-0.0102014	-0.196003	0	6.08409e-05
1860.21	-0.0116711	-0.195998	0	2.26695e-05
1860.21	-0.0139615	-0.195994	0	4.17552e-05
1860.21	-0.0149923	-0.195998	0	2.26695e-05
1860.21	-0.0161375	-0.196	0	0.000137184
1860.21	-0.0172255	-0.195998	0	9.90123e-05
1860.21	-0.0183516	-0.196	0	-9.18446e-05
1860.21	-0.0194587	-0.195995	0	7.99266e-05
1860.21	-0.0214628	-0.195997	0	0.000118098
1860.21	-0.0233334	-0.195996	0	6.08409e-05
1860.21	-0.0251085	-0.195997	0	9.90123e-05
1860.21	-0.0261965	-0.195997	0	9.90123e-05
1860.21	-0.0279716	-0.196	0	9.90123e-05
1860.21	-0.0296322	-0.196004	0	-1.55018e-05
1860.21	-0.0314264	-0.195998	0	2.26695e-05
1860.21	-0.0329343	-0.195994	0	-9.18446e-05
1860.21	-0.0345185	-0.195998	0	9.90123e-05
1860.21	-0.0360264	-0.196	0	9.90123e-05
1860.21	-0.0377633	-0.195994	0	6.08409e-05
1860.21	-0.039214	-0.196	0	4.17552e-05
1860.21	-0.0405501	-0.195996	0	6.08409e-05
1860.21	-0.0421725	-0.195995	0	9.90123e-05
1860.21	-0.0435086	-0.196004	0	0.000118098
1860.21	-0.0448638	-0.196	0	4.17552e-05
1860.21	-0.0463526	-0.196	0	6.08409e-05
1860.22	-0.0475551	-0.196002	0	4.17552e-05
1860.22	-0.0489866	-0.196001	0	0.000156269
1860.22	-0.0504754	-0.196002	0	-5.36732e-05
1860.22	-0.0515825	-0.196001	0	7.99266e-05
1860.22	-0.0529568	-0.195994	0	-1.55018e-05
1860.22	-0.0541783	-0.195998	0	9.90123e-05
1860.22	-0.0555145	-0.195998	0	9.90123e-05
1860.22	-0.0566597	-0.195993	0	0.000137184
1860.22	-0.0579004	-0.196001	0	-3.45875e-05
1860.22	-0.0591219	-0.195996	0	7.99266e-05
1860.22	-0.0603435	-0.195999	0	4.17552e-05
1860.22	-0.0615651	-0.195998	0	2.26695e-05
1860.22	-0.0626912	-0.195997	0	-5.36732e-05
1860.22	-0.0637983	-0.196001	0	0.000156269
1860.22	-0.0649817	-0.195998	0	0.000137184
1860.22	-0.0660697	-0.195998	0	0.000156269
1860.22	-0.067673	-0.195998	0	0.000118098
1860.22	-0.0688373	-0.196003	0	4.17552e-05
1860.22	-0.069868	-0.195994	0	-3.45875e-05
1860.22	-0.0708988	-0.195992	0	9.90123e-05
1860.22	-0.0720249	-0.195994	0	6.08409e-05
1860.22	-0.0730365	-0.196003	0	3.58385e-06
1860.22	-0.0741245	-0.195994	0	0.000118098
1860.22	-0.0757469	-0.195999	0	6.08409e-05
1860.23	-0.0771785	-0.196001	0	7.99266e-05
1860.23	-0.078839	-0.195993	0	2.26695e-05
1860.23	-0.0802324	-0.196	0	0.000175355
1860.23	-0.0815303	-0.195997	0	-3.45875e-05
1860.23	-0.0825992	-0.195995	0	4.17552e-05
1860.23	-0.084088	-0.195998	0	9.90123e-05
1860.23	-0.0854814	-0.196005	0	2.26695e-05
1860.23	-0.0869702	-0.195994	0	0.000175355
1860.23	-0.08823	-0.195998	0	9.90123e-05
1860.23	-0.0896615	-0.196002	0	7.99266e-05
1860.23	-0.0909022	-0.195999	0	0.000213526
1860.23	-0.0922765	-0.19599	0	9.90123e-05
1860.23	-0.093498	-0.195996	0	7.99266e-05
1860.23	-0.0948914	-0.196002	0	3.58385e-06
1860.23	-0.0960939	-0.195994	0	7.99266e-05
1860.23	-0.0973537	-0.195997	0	2.26695e-05
1860.23	-0.0986898	-0.196003	0	0.000156269
1860.24	-0.0999113	-0.196004	0	2.26695e-05
1860.24	-0.10098	-0.195997	0	6.08409e-05
1860.24	-0.102259	-0.195995	0	7.99266e-05
1860.24	-0.1035	-0.196	0	0.000118098
1860.24	-0.104569	-0.196	0	-7.27589e-05
1860.24	-0.105771	-0.195994	0	0.000194441
1860.24	-0.107031	-0.195998	0	9.90123e-05
1860.24	-0.108367	-0.195998	0	3.58385e-06
1860.24	-0.109589	-0.195994	0	0.000194441
1860.24	-0.110734	-0.195996	0	2.26695e-05
1860.24	-0.111745	-0.196	0	4.17552e-05
1860.24	-0.112833	-0.195994	0	6.08409e-05
1860.24	-0.11394	-0.195995	0	0.000118098
1860.24	-0.115086	-0.196001	0	0.000118098
1860.24	-0.116326	-0.195995	0	7.99266e-05
1860.24	-0.117472	-0.196001	0	4.17552e-05
1860.25	-0.11875	-0.196	0	0.000213526
1860.25	-0.119762	-0.196002	0	0.000156269
1860.25	-0.12106	-0.195994	0	0.000137184
1860.25	-0.122377	-0.195996	0	0.000213526
1860.25	-0.123618	-0.195993	0	4.17552e-05
1860.25	-0.124801	-0.195996	0	6.08409e-05
1860.25	-0.12608	-0.195996	0	0.000175355
1860.25	-0.127282	-0.195998	0	0.000118098
1860.25	-0.128485	-0.196001	0	0.000213526
1860.25	-0.129611	-0.196001	0	0.000156269
1860.25	-0.130852	-0.196001	0	9.90123e-05
1860.25	-0.13194	-0.196	0	-5.36732e-05
1860.25	-0.133085	-0.196001	0	6.08409e-05
1860.26	-0.134154	-0.196003	0	7.99266e-05
1860.26	-0.135318	-0.196	0	9.90123e-05
1860.26	-0.136692	-0.196	0	0.000118098
1860.26	-0.137857	-0.195994	0	7.99266e-05
1860.26	-0.138907	-0.195998	0	-5.36732e-05
1860.26	-0.139956	-0.195996	0	0.000118098
1860.26	-0.140987	-0.196	0	2.26695e-05
1860.26	-0.142018	-0.195993	0	6.08409e-05
1860.26	-0.143239	-0.195998	0	9.90123e-05
1860.26	-0.144289	-0.195996	0	6.08409e-05
1860.26	-0.145492	-0.196	0	0.000156269
1860.27	-0.146503	-0.196	0	4.17552e-05
1860.27	-0.147706	-0.195998	0	0.000118098
1860.27	-0.148966	-0.195998	0	9.90123e-05
1860.27	-0.150111	-0.196	0	0.000156269
1860.27	-0.151294	-0.196001	0	9.90123e-05
1860.27	-0.152516	-0.196003	0	2.26695e-05
1860.27	-0.153642	-0.196001	0	9.90123e-05
1860.27	-0.154787	-0.196002	0	0.000118098
1860.27	-0.155875	-0.196	0	-3.45875e-05
1860.28	-0.156887	-0.195998	0	0.000118098
1860.28	-0.157956	-0.195994	0	0.000194441
1860.28	-0.158986	-0.196001	0	0.000118098
1860.28	-0.160112	-0.196003	0	9.90123e-05
1860.28	-0.161124	-0.195993	0	4.17552e-05
1860.28	-0.162193	-0.196	0	0.000194441
1860.28	-0.163434	-0.196	0	0.000156269
1860.29	-0.164827	-0.196003	0	2.26695e-05
1860.29	-0.165972	-0.196006	0	2.26695e-05
1860.29	-0.167137	-0.195998	0	9.90123e-05
1860.29	-0.168167	-0.195996	0	7.99266e-05
1860.29	-0.169217	-0.195998	0	-1.55018e-05
1860.31	-0.168186	-0.195993	0	0.000175355
1860.31	-0.167079	-0.195996	0	7.99266e-05
1860.31	-0.16601	-0.195999	0	7.99266e-05
1860.31	-0.164674	-0.195998	0	3.58385e-06
1860.31	-0.163338	-0.196	0	7.99266e-05
1860.31	-0.162231	-0.195999	0	0.000137184
1860.31	-0.161124	-0.195997	0	0.000118098
1860.32	-0.159845	-0.195998	0	0.000118098
1860.32	-0.158719	-0.195999	0	9.90123e-05
1860.32	-0.157631	-0.195994	0	0.000137184
1860.32	-0.156429	-0.195998	0	0.000118098
1860.32	-0.155322	-0.196002	0	7.99266e-05
1860.32	-0.154291	-0.195999	0	0.000156269
1860.32	-0.152993	-0.196002	0	9.90123e-05
1860.32	-0.151943	-0.196006	0	0.000156269
1860.32	-0.150912	-0.195999	0	4.17552e-05
1860.32	-0.149748	-0.195994	0	7.99266e-05
1860.32	-0.148641	-0.195996	0	7.99266e-05
1860.33	-0.1474	-0.196001	0	3.58385e-06
1860.33	-0.146293	-0.196004	0	3.58385e-06
1860.33	-0.145129	-0.196002	0	9.90123e-05
1860.33	-0.144041	-0.196001	0	6.08409e-05
1860.33	-0.142762	-0.195996	0	6.08409e-05
1860.33	-0.141712	-0.196003	0	0.000118098
1860.33	-0.140644	-0.195996	0	0.000175355
1860.33	-0.139613	-0.195996	0	9.90123e-05
1860.33	-0.138601	-0.195998	0	9.90123e-05
1860.33	-0.137494	-0.195993	0	6.08409e-05
1860.33	-0.136482	-0.195999	0	7.99266e-05
1860.34	-0.135395	-0.196	0	6.08409e-05
1860.34	-0.134383	-0.195994	0	9.90123e-05
1860.34	-0.133161	-0.196	0	-1.55018e-05
1860.34	-0.132092	-0.195996	0	0.000118098
1860.34	-0.130985	-0.195998	0	0.000118098
1860.34	-0.129878	-0.196001	0	0.000137184
1860.34	-0.12858	-0.195997	0	9.90123e-05
1860.34	-0.127397	-0.196	0	7.99266e-05
1860.34	-0.126061	-0.196002	0	6.08409e-05
1860.35	-0.124973	-0.195998	0	7.99266e-05
1860.35	-0.123904	-0.195991	0	0.000118098
1860.35	-0.122778	-0.195999	0	9.90123e-05
1860.35	-0.121633	-0.195999	0	0.000118098
1860.35	-0.120526	-0.195998	0	0.000175355
1860.35	-0.119361	-0.195998	0	4.17552e-05
1860.35	-0.11814	-0.196001	0	0.000156269
1860.35	-0.116937	-0.195997	0	-1.55018e-05
1860.36	-0.115887	-0.195994	0	0.000118098
1860.36	-0.114818	-0.195998	0	2.26695e-05
1860.36	-0.113788	-0.195998	0	6.08409e-05
1860.36	-0.112738	-0.196	0	9.90123e-05
1860.36	-0.111535	-0.195993	0	7.99266e-05
1860.36	-0.110505	-0.195998	0	9.90123e-05
1860.36	-0.109379	-0.196	0	6.08409e-05
1860.37	-0.108367	-0.195998	0	0.000194441
1860.37	-0.107336	-0.195997	0	-5.36732e-05
1860.37	-0.106	-0.196	0	4.17552e-05
1860.37	-0.104989	-0.195998	0	7.99266e-05
1860.37	-0.103977	-0.195998	0	9.90123e-05
1860.38	-0.102908	-0.195993	0	0.000194441
1860.38	-0.101896	-0.195998	0	4.17552e-05
1860.38	-0.100789	-0.195997	0	7.99266e-05
1860.38	-0.0997587	-0.195996	0	0.000194441
1860.39	-0.0986516	-0.195997	0	6.08409e-05
1860.39	-0.0976209	-0.195999	0	3.58385e-06
1860.39	-0.0966093	-0.195997	0	9.90123e-05
1860.4	-0.0955595	-0.195998	0	0.000118098
1860.4	-0.0945287	-0.196002	0	7.99266e-05
1860.4	-0.0934026	-0.196	0	6.08409e-05
1860.41	-0.0923719	-0.196	0	0.000118098
1860.41	-0.0913412	-0.196002	0	7.99266e-05
1860.42	-0.0902914	-0.196001	0	4.17552e-05
1860.42	-0.0891652	-0.196	0	0.000194441
1860.43	-0.0881154	-0.196003	0	-3.45875e-05
1860.44	-0.0870847	-0.196	0	4.17552e-05
1860.44	-0.086054	-0.195998	0	6.08409e-05
1860.45	-0.0850424	-0.196002	0	3.58385e-06
1860.46	-0.0840308	-0.195994	0	9.90123e-05
1860.47	-0.0830192	-0.195998	0	6.08409e-05
1860.49	-0.0820075	-0.195999	0	-3.45875e-05
1860.5	-0.0809386	-0.196001	0	7.99266e-05
1860.52	-0.079927	-0.196001	0	3.58385e-06
1860.55	-0.0789154	-0.195997	0	0.000137184
1860.58	-0.0778656	-0.196	0	0.000118098
1860.61	-0.076854	-0.196	0	0.000175355
1860.66	-0.0758424	-0.196002	0	-3.45875e-05
1860.73	-0.0748307	-0.195996	0	6.08409e-05
1860.83	-0.0738191	-0.196002	0	9.90123e-05
1860.96	-0.0727693	-0.195995	0	7.99266e-05
1861.28	-0.0717004	-0.196	0	2.26695e-05
1864.9	-0.072712	-0.196	0	7.99266e-05
1866.42	-0.0737618	-0.195999	0	3.58385e-06
1867.98	-0.0747925	-0.196003	0	0.000213526
1869.59	-0.0758042	-0.196003	0	6.08409e-05
1871.27	-0.0768158	-0.195995	0	0.000118098
1872.99	-0.0778465	-0.196001	0	6.08409e-05
1875.11	-0.0788963	-0.196005	0	0.000137184
1877.37	-0.0799079	-0.196003	0	7.99266e-05
1879.8	-0.0809386	-0.196004	0	2.26695e-05
1882.58	-0.0819503	-0.196003	0	0.000175355
1885.65	-0.0829619	-0.196003	0	6.08409e-05
1889.26	-0.0839926	-0.196001	0	4.17552e-05
1893.54	-0.0850233	-0.196005	0	3.58385e-06
1896.21	-0.0853287	-0.196	0	-1.55018e-05