Folder: SUMMER-JOB-2024-MATERIALS-PHYSICS/EXPERIMENTAL-DATA/Electrochemical-cycling/S-series (part 3)

File: 2024-06-19_S09_Icell_t1800_C0030_J01_04_CP_C09.txt
time/s	Ewe/V	I/mA	error	Ece/V
1860.21	-0.00224636	-0.194643	0	-0.00118707
1860.21	-0.0116615	-0.195985	0	2.44831e-05
1860.21	-0.0151735	-0.195982	0	8.1739e-05
1860.21	-0.0182274	-0.195984	0	5.39784e-06
1860.21	-0.020995	-0.195984	0	2.44831e-05
1860.21	-0.0235717	-0.195982	0	0.00015808
1860.21	-0.0259957	-0.195984	0	0.000100824
1860.21	-0.0284007	-0.195986	0	5.39784e-06
1860.21	-0.0306147	-0.195983	0	8.1739e-05
1860.21	-0.0327525	-0.195984	0	0.000138995
1860.21	-0.0360354	-0.195984	0	0.000177165
1860.21	-0.0391084	-0.195985	0	0.00015808
1860.21	-0.0427158	-0.195989	0	5.39784e-06
1860.21	-0.0455025	-0.195984	0	5.39784e-06
1860.21	-0.0490145	-0.195988	0	2.44831e-05
1860.21	-0.0524501	-0.195987	0	8.1739e-05
1860.21	-0.0556567	-0.195982	0	-3.27727e-05
1860.22	-0.0588442	-0.195981	0	6.26537e-05
1860.22	-0.0617645	-0.19598	0	8.1739e-05
1860.22	-0.064742	-0.195982	0	0.000177165
1860.22	-0.0677005	-0.195987	0	0.000100824
1860.22	-0.070449	-0.195986	0	6.26537e-05
1860.22	-0.0731403	-0.195982	0	8.1739e-05
1860.22	-0.0756788	-0.195988	0	0.000138995
1860.22	-0.0783128	-0.195987	0	-5.1858e-05
1860.22	-0.0809468	-0.195982	0	6.26537e-05
1860.22	-0.0839625	-0.195983	0	0.000177165
1860.22	-0.086272	-0.195987	0	6.26537e-05
1860.22	-0.0885434	-0.195988	0	8.1739e-05
1860.22	-0.0907956	-0.195985	0	8.1739e-05
1860.23	-0.0932005	-0.195992	0	5.39784e-06
1860.23	-0.0958727	-0.195983	0	0.000196251
1860.23	-0.0985067	-0.195984	0	0.000177165
1860.23	-0.100587	-0.195981	0	-3.27727e-05
1860.23	-0.103088	-0.195987	0	6.26537e-05
1860.23	-0.105531	-0.195989	0	0.00011991
1860.23	-0.108069	-0.195987	0	0.000100824
1860.23	-0.110684	-0.195983	0	8.1739e-05
1860.23	-0.113032	-0.195985	0	6.26537e-05
1860.23	-0.115628	-0.195983	0	2.44831e-05
1860.24	-0.118262	-0.195985	0	-1.36875e-05
1860.24	-0.120724	-0.19598	0	6.26537e-05
1860.24	-0.123301	-0.195986	0	0.000138995
1860.24	-0.12561	-0.195985	0	-3.27727e-05
1860.24	-0.12792	-0.195991	0	0.000100824
1860.24	-0.130134	-0.195985	0	0.000100824
1860.24	-0.13231	-0.195988	0	2.44831e-05
1860.24	-0.134791	-0.195983	0	5.39784e-06
1860.25	-0.137501	-0.195983	0	-5.1858e-05
1860.25	-0.140269	-0.195984	0	-1.36875e-05
1860.25	-0.142674	-0.195984	0	6.26537e-05
1860.25	-0.144773	-0.195987	0	0.000177165
1860.25	-0.14693	-0.195982	0	0.00015808
1860.25	-0.149068	-0.195987	0	0.000177165
1860.26	-0.151473	-0.195992	0	0.000100824
1860.26	-0.153801	-0.195981	0	0.00011991
1860.26	-0.156034	-0.195982	0	-3.27727e-05
1860.26	-0.158439	-0.195984	0	2.44831e-05
1860.26	-0.160577	-0.195982	0	2.44831e-05
1860.26	-0.162829	-0.195984	0	8.1739e-05
1860.27	-0.165425	-0.195987	0	8.1739e-05
1860.27	-0.167601	-0.195985	0	8.1739e-05
1860.27	-0.169853	-0.195991	0	5.39784e-06
1860.27	-0.172144	-0.195979	0	0.000100824
1860.28	-0.174549	-0.195991	0	8.1739e-05
1860.28	-0.176763	-0.195985	0	5.39784e-06
1860.28	-0.178901	-0.195986	0	0.000138995
1860.3	-0.178824	-0.195988	0	6.26537e-05
1860.3	-0.176706	-0.195985	0	6.26537e-05
1860.3	-0.174549	-0.195985	0	8.1739e-05
1860.3	-0.172296	-0.195983	0	5.39784e-06
1860.31	-0.169987	-0.195985	0	0.000100824
1860.31	-0.16783	-0.19599	0	4.35684e-05
1860.31	-0.165349	-0.195983	0	-5.1858e-05
1860.31	-0.162925	-0.195983	0	4.35684e-05
1860.31	-0.160482	-0.195985	0	0.000100824
1860.32	-0.158363	-0.195988	0	4.35684e-05
1860.32	-0.156168	-0.195987	0	4.35684e-05
1860.32	-0.154049	-0.195984	0	6.26537e-05
1860.32	-0.151664	-0.195985	0	0.000100824
1860.32	-0.149278	-0.195985	0	-7.09433e-05
1860.32	-0.14693	-0.19599	0	0.000196251
1860.33	-0.144544	-0.195986	0	0.00011991
1860.33	-0.14212	-0.195991	0	-3.27727e-05
1860.33	-0.139658	-0.195982	0	5.39784e-06
1860.33	-0.137482	-0.195982	0	8.1739e-05
1860.33	-0.13523	-0.195985	0	-7.09433e-05
1860.34	-0.133073	-0.195987	0	0.00015808
1860.34	-0.13084	-0.195989	0	8.1739e-05
1860.34	-0.128549	-0.195989	0	8.1739e-05
1860.34	-0.12624	-0.195983	0	0.00015808
1860.35	-0.124159	-0.195983	0	-3.27727e-05
1860.35	-0.121964	-0.195987	0	4.35684e-05
1860.35	-0.119769	-0.195989	0	2.44831e-05
1860.35	-0.117708	-0.195987	0	0.000138995
1860.36	-0.115418	-0.195985	0	8.1739e-05
1860.36	-0.113375	-0.195981	0	-1.36875e-05
1860.36	-0.111047	-0.195982	0	5.39784e-06
1860.37	-0.108852	-0.195986	0	-1.36875e-05
1860.37	-0.106657	-0.195985	0	6.26537e-05
1860.38	-0.104519	-0.195991	0	4.35684e-05
1860.39	-0.102248	-0.195988	0	-1.36875e-05
1860.39	-0.100148	-0.195985	0	0.000177165
1860.4	-0.0979341	-0.195982	0	-3.27727e-05
1860.41	-0.0958154	-0.195977	0	4.35684e-05
1860.42	-0.0937159	-0.195987	0	-1.36875e-05
1860.44	-0.0916354	-0.195983	0	6.26537e-05
1860.46	-0.0894213	-0.195991	0	6.26537e-05
1860.48	-0.0873981	-0.195992	0	0.00011991
1860.51	-0.0853368	-0.195989	0	5.39784e-06
1860.56	-0.0832754	-0.195984	0	5.39784e-06
1860.64	-0.0812331	-0.195985	0	6.26537e-05
1860.78	-0.0791908	-0.19598	0	6.26537e-05
1861.52	-0.0771103	-0.195986	0	4.35684e-05
1863.85	-0.0791526	-0.195984	0	-3.27727e-05
1866.31	-0.081214	-0.195984	0	2.44831e-05
1868.98	-0.0832372	-0.195983	0	-3.27727e-05
1872.15	-0.0853177	-0.195989	0	0.000100824
1875.63	-0.08736	-0.195985	0	6.26537e-05
1879.95	-0.0894786	-0.19599	0	8.1739e-05
1885.05	-0.0915018	-0.195991	0	4.35684e-05
1890.93	-0.0935441	-0.195982	0	0.00011991
1898.01	-0.0955864	-0.195991	0	0.000138995
1906.48	-0.0976287	-0.195989	0	6.26537e-05
1918.43	-0.0996901	-0.19599	0	-3.27727e-05
1935.13	-0.101732	-0.195991	0	0.000100824
1955.13	-0.103068	-0.195991	0	0.000177165
1968.21	-0.103851	-0.195989	0	4.35684e-05

File: 2024-06-25_S12_Icell_t0012_C0010_J01_deltaX-110,1mm_02_MB_C05.txt
time/s	Ewe/V	I/mA	error
60.053	2.87282	-0.0250213	0
60.1432	0.00920534	-9.99591	0
60.1434	0.00916716	-9.92112	0
60.1436	0.00924352	-9.84749	0
60.1438	0.00914807	-9.77461	0
60.144	0.00920534	-9.70288	0
60.1442	0.00922443	-9.6323	0
60.1444	0.00924352	-9.56203	0
60.1446	0.00924352	-9.49317	0
60.1448	0.00920534	-9.42519	0
60.145	0.00926261	-9.35818	0
60.1452	0.0092817	-9.29198	0
60.1454	0.00914807	-9.22617	0
60.1456	0.00920534	-9.16151	0
60.1458	0.00931988	-9.09684	0
60.146	0.00924352	-9.03454	0
60.1462	0.00914807	-8.97318	0
60.1464	0.00922443	-8.91208	0
60.1466	0.00926261	-8.852	0
60.1468	0.00924352	-8.793	0
60.147	0.00922443	-8.73349	0
60.1472	0.00916716	-8.67506	0
60.1474	0.00920534	-8.61886	0
60.1476	0.00924352	-8.56114	0
60.1478	0.00926261	-8.50653	0
60.148	0.00920534	-8.4509	0
60.1482	0.0092817	-8.39668	0
60.1484	0.00920534	-8.34328	0
60.1486	0.00918625	-8.29026	0
60.1488	0.00926261	-8.23794	0
60.149	0.00914807	-8.18677	0
60.1492	0.00924352	-8.13528	0
60.1496	0.00920534	-8.03618	0
60.15	0.00924352	-7.93957	0
60.1504	0.00930079	-7.84461	0
60.1508	0.00918625	-7.75251	0
60.1512	0.00916716	-7.66354	0
60.1516	0.00918625	-7.5745	0
60.152	0.00920534	-7.48966	0
60.1524	0.00920534	-7.40666	0
60.1528	0.00924352	-7.32488	0
60.1532	0.00922443	-7.24666	0
60.1536	0.00912898	-7.16939	0
60.154	0.00922443	-7.09454	0
60.1544	0.00922443	-7.02103	0
60.1548	0.00924352	-6.95026	0
60.1552	0.00933897	-6.88031	0
60.1556	0.00935806	-6.8117	0
60.156	0.00922443	-6.74595	0
60.1564	0.00918625	-6.68161	0
60.1568	0.00922443	-6.61777	0
60.1572	0.00922443	-6.55629	0
60.1576	0.00930079	-6.49621	0
60.158	0.00916716	-6.43676	0
60.1584	0.00924352	-6.37993	0
60.1588	0.00935806	-6.32373	0
60.1592	0.00924352	-6.26975	0
60.1596	0.00933897	-6.21483	0
60.16	0.00926261	-6.16226	0
60.1604	0.00922443	-6.11166	0
60.1608	0.0092817	-6.06106	0
60.1614	0.00922443	-5.9885	0
60.162	0.0092817	-5.91792	0
60.1626	0.00922443	-5.84995	0
60.1632	0.00939624	-5.78356	0
60.1638	0.00933897	-5.71814	0
60.1644	0.00918625	-5.6564	0
60.165	0.0092817	-5.59498	0
60.1656	0.00926261	-5.53675	0
60.1662	0.00933897	-5.48004	0
60.1668	0.0092817	-5.42428	0
60.1674	0.00922443	-5.37082	0
60.168	0.00930079	-5.31729	0
60.1686	0.00937715	-5.26708	0
60.1694	0.00930079	-5.20063	0
60.1702	0.00935806	-5.13749	0
60.171	0.00933897	-5.07487	0
60.1718	0.00930079	-5.01625	0
60.1726	0.00933897	-4.95788	0
60.1734	0.0092817	-4.90175	0
60.1742	0.00926261	-4.84733	0
60.175	0.0092817	-4.79495	0
60.1758	0.00935806	-4.7427	0
60.1768	0.00939624	-4.68071	0
60.1778	0.0092817	-4.62043	0
60.1788	0.00916716	-4.56277	0
60.1798	0.0092817	-4.506	0
60.1808	0.00922443	-4.45158	0
60.1818	0.0092817	-4.39837	0
60.1828	0.00930079	-4.34714	0
60.184	0.00933897	-4.28706	0
60.1852	0.00933897	-4.22978	0
60.1864	0.00935806	-4.17364	0
60.1876	0.00930079	-4.11916	0
60.1888	0.0092817	-4.06557	0
60.1902	0.00933897	-4.00708	0
60.1916	0.00937715	-3.94916	0
60.193	0.00924352	-3.89404	0
60.1944	0.00935806	-3.83924	0
60.1958	0.00930079	-3.78718	0
60.1972	0.00933897	-3.73556	0
60.1988	0.0092817	-3.67956	0
60.2004	0.00930079	-3.62463	0
60.202	0.00933897	-3.5711	0
60.2036	0.00926261	-3.51987	0
60.2052	0.00941533	-3.46933	0
60.207	0.00924352	-3.41466	0
60.2088	0.00926261	-3.36203	0
60.2106	0.00933897	-3.31028	0
60.2124	0.00935806	-3.25994	0
60.2144	0.00922443	-3.20558	0
60.2164	0.00930079	-3.15352	0
60.2184	0.0092817	-3.10197	0
60.2206	0.00933897	-3.04825	0
60.2228	0.00933897	-2.99549	0
60.225	0.00941533	-2.94349	0
60.2274	0.00933897	-2.88971	0
60.2298	0.00933897	-2.83695	0
60.2322	0.00922443	-2.78603	0
60.2348	0.00933897	-2.73289	0
60.2374	0.00931988	-2.6807	0
60.24	0.00926261	-2.6301	0
60.2428	0.00926261	-2.57842	0
60.2456	0.00933897	-2.52705	0
60.2486	0.00931988	-2.47493	0
60.2516	0.00931988	-2.42408	0
60.2548	0.00931988	-2.37169	0
60.2582	0.00931988	-2.31779	0
60.2616	0.00931988	-2.26585	0
60.2652	0.00924352	-2.21328	0
60.2688	0.0092817	-2.16198	0
60.2726	0.00933897	-2.11011	0
60.2766	0.00935806	-2.05805	0
60.2806	0.00930079	-2.0077	0
60.2848	0.0092817	-1.95698	0
60.2892	0.00935806	-1.90542	0
60.2938	0.00926261	-1.85527	0
60.2984	0.00941533	-1.80518	0
60.3034	0.00937715	-1.7542	0
60.3088	0.00935806	-1.7022	0
60.3142	0.00931988	-1.65129	0
60.32	0.00930079	-1.60024	0
60.326	0.00937715	-1.54977	0
60.3322	0.00931988	-1.49968	0
60.339	0.0092817	-1.448	0
60.3462	0.00941533	-1.39791	0
60.3538	0.00931988	-1.34693	0
60.3618	0.00941533	-1.29563	0
60.3704	0.00930079	-1.2444	0
60.3796	0.00939624	-1.19329	0
60.3896	0.00931988	-1.14193	0
60.4004	0.00920534	-1.09088	0
60.4118	0.00931988	-1.04016	0
60.4242	0.00930079	-0.989241	0
60.4378	0.00933897	-0.939152	0
60.4526	0.00933897	-0.888617	0
60.469	0.00935806	-0.838082	0
60.4872	0.00939624	-0.787547	0
60.508	0.00926261	-0.736439	0
60.5312	0.00937715	-0.685332	0
60.5582	0.00937715	-0.63416	0
60.5884	0.00943442	-0.584135	0
60.624	0.00931988	-0.5336	0
60.667	0.00931988	-0.48351	0
60.718	0.00930079	-0.432976	0
60.786	0.00931988	-0.382841	0
60.868	0.0092817	-0.332833	0
60.9762	0.00930079	-0.28278	0
61.126	0.00931988	-0.232754	0
61.3524	0.00933897	-0.182682	0
61.7348	0.00924352	-0.132528	0
62.5426	0.00935806	-0.0822848	0
65.6498	0.00930079	-0.0322748	0
72.0528	0.00939624	-0.0142679	0

File: 2024-06-25_S12_Icell_t0012_C0010_J01_deltaX-110,1mm_04_CP_C05.txt
time/s	Ewe/V	I/mA	error
72.2058	0.0201622	-0.194691	0
72.206	0.0179171	-0.19598	0
72.2062	0.0165118	-0.195988	0
72.2066	0.0146982	-0.195982	0
72.207	0.0132855	-0.195978	0
72.2074	0.0118729	-0.195982	0
72.2078	0.0106511	-0.19598	0
72.2082	0.0092957	-0.195978	0
72.2086	0.00801666	-0.195984	0
72.209	0.00673763	-0.195978	0
72.2094	0.0054395	-0.195987	0
72.2098	0.004275	-0.195987	0
72.2102	0.00314868	-0.195987	0
72.2106	0.00198418	-0.195979	0
72.211	0.000838773	-0.195982	0
72.2114	-0.000230275	-0.195985	0
72.2118	-0.00131841	-0.195984	0
72.2122	-0.00238746	-0.195981	0
72.2126	-0.00345651	-0.195984	0
72.213	-0.00454465	-0.195984	0
72.2136	-0.0059955	-0.195984	0
72.214	-0.00700727	-0.195981	0
72.2144	-0.00817177	-0.195982	0
72.215	-0.00969898	-0.195977	0
72.2156	-0.010978	-0.19598	0
72.216	-0.0120089	-0.195987	0
72.2166	-0.0133834	-0.195988	0
72.2172	-0.0147388	-0.195985	0
72.2176	-0.0157696	-0.195983	0
72.218	-0.0167814	-0.195987	0
72.2186	-0.0179459	-0.195979	0
72.2192	-0.0193586	-0.19598	0
72.2198	-0.0207522	-0.195989	0
72.2204	-0.0220312	-0.195982	0
72.221	-0.023253	-0.195987	0
72.2216	-0.0246657	-0.195985	0
72.2222	-0.0258111	-0.195985	0
72.2228	-0.0270137	-0.19598	0
72.2234	-0.0282355	-0.195976	0
72.224	-0.0293809	-0.195986	0
72.2246	-0.0307363	-0.195981	0
72.2254	-0.0321681	-0.19598	0
72.226	-0.0334853	-0.195985	0
72.2268	-0.0348789	-0.19598	0
72.2274	-0.0359097	-0.19598	0
72.2282	-0.0373606	-0.195985	0
72.2288	-0.0385251	-0.195983	0
72.2294	-0.0396705	-0.195977	0
72.2302	-0.0408923	-0.195986	0
72.2308	-0.0419422	-0.195981	0
72.2314	-0.042954	-0.195984	0
72.2322	-0.0444048	-0.19598	0
72.233	-0.0454739	-0.195983	0
72.2336	-0.0465239	-0.195985	0
72.2344	-0.0477838	-0.195984	0
72.2352	-0.0490056	-0.195984	0
72.236	-0.0502464	-0.195978	0
72.2368	-0.0515446	-0.195988	0
72.2376	-0.0526518	-0.195977	0
72.2384	-0.0536636	-0.195986	0
72.2392	-0.0549617	-0.195984	0
72.24	-0.0559926	-0.195982	0
72.2408	-0.0570616	-0.19598	0
72.2416	-0.0582452	-0.19598	0
72.2424	-0.0593142	-0.195991	0
72.2434	-0.060536	-0.195984	0
72.2444	-0.0617005	-0.195983	0
72.2454	-0.0629605	-0.195984	0
72.2464	-0.0641059	-0.195983	0
72.2474	-0.0653276	-0.195987	0
72.2484	-0.0664921	-0.195987	0
72.2494	-0.067523	-0.195982	0
72.2504	-0.0686684	-0.195985	0
72.2516	-0.0698329	-0.19599	0
72.2526	-0.070902	-0.19598	0
72.2538	-0.0720092	-0.195978	0
72.255	-0.0730401	-0.19598	0
72.256	-0.0742618	-0.195983	0
72.2572	-0.0753309	-0.195982	0
72.2586	-0.0765145	-0.195986	0
72.26	-0.0776408	-0.195985	0
72.2614	-0.0788435	-0.195987	0
72.2628	-0.0799507	-0.195987	0
72.264	-0.0809816	-0.195984	0
72.2656	-0.082127	-0.19599	0
72.267	-0.0831769	-0.195983	0
72.2686	-0.0842269	-0.195979	0
72.2702	-0.0852959	-0.195983	0
72.272	-0.0864986	-0.195984	0
72.274	-0.0877013	-0.195984	0
72.2758	-0.0888276	-0.195981	0
72.2778	-0.0898776	-0.195985	0
72.2798	-0.0910039	-0.195985	0
72.2816	-0.0920729	-0.195987	0
72.2844	-0.0932947	-0.195979	0
72.2864	-0.0943256	-0.195977	0
72.2888	-0.0954519	-0.195985	0
72.2912	-0.0964636	-0.195982	0
72.2938	-0.0974945	-0.195985	0
72.2964	-0.0985636	-0.195983	0
72.2992	-0.0997472	-0.195989	0
72.3022	-0.100797	-0.195984	0
72.3056	-0.101809	-0.195988	0
72.3086	-0.10284	-0.19598	0
72.3122	-0.103909	-0.195988	0
72.3158	-0.104978	-0.195982	0
72.3196	-0.10599	-0.195981	0
72.3234	-0.107001	-0.195987	0
72.3274	-0.108013	-0.19598	0
72.3316	-0.109025	-0.195986	0
72.3362	-0.110056	-0.195984	0
72.3412	-0.111106	-0.195981	0
72.3462	-0.112156	-0.19599	0
72.352	-0.113225	-0.195982	0
72.3578	-0.114294	-0.195982	0
72.3638	-0.115306	-0.195982	0
72.3702	-0.116356	-0.195983	0
72.3774	-0.117425	-0.195984	0
72.3848	-0.118532	-0.195985	0
72.3932	-0.119563	-0.195984	0
72.4012	-0.120689	-0.195977	0
72.411	-0.121834	-0.19598	0
72.4228	-0.122865	-0.195988	0
72.434	-0.123953	-0.195982	0
72.4488	-0.124965	-0.195977	0
72.477	-0.125996	-0.195982	0
72.5064	-0.124984	-0.195984	0
72.52	-0.123877	-0.195986	0
72.531	-0.122789	-0.195985	0
72.5416	-0.121624	-0.195986	0
72.5504	-0.120575	-0.195987	0
72.5578	-0.119448	-0.195987	0
72.5668	-0.118379	-0.195986	0
72.5736	-0.117329	-0.195985	0
72.581	-0.11626	-0.195982	0
72.5884	-0.115191	-0.195989	0
72.5954	-0.114084	-0.195985	0
72.6036	-0.112977	-0.195983	0
72.6116	-0.111965	-0.195981	0
72.6188	-0.110934	-0.195991	0
72.626	-0.109922	-0.195978	0
72.6338	-0.10891	-0.195985	0
72.6418	-0.10788	-0.195982	0
72.651	-0.106772	-0.195986	0
72.6598	-0.105722	-0.195977	0
72.6698	-0.104672	-0.195985	0
72.6796	-0.103622	-0.195983	0
72.6908	-0.102496	-0.195978	0
72.7026	-0.101484	-0.195991	0
72.7138	-0.100415	-0.195987	0
72.7274	-0.0993654	-0.195984	0
72.7398	-0.0983345	-0.195982	0
72.7562	-0.0972654	-0.195984	0
72.774	-0.0961964	-0.195985	0
72.7916	-0.0951846	-0.195987	0
72.812	-0.0941537	-0.195986	0
72.8338	-0.093142	-0.195985	0
72.8578	-0.092092	-0.19598	0
72.8806	-0.0910802	-0.195983	0
72.9142	-0.0900685	-0.195982	0
72.9494	-0.0889994	-0.195985	0
72.9934	-0.0879685	-0.195992	0
73.0386	-0.0869568	-0.195981	0
73.0946	-0.0859259	-0.195987	0
73.1564	-0.0849141	-0.195979	0
73.235	-0.0839023	-0.195984	0
73.331	-0.0828715	-0.195983	0
73.4446	-0.0818597	-0.195989	0
73.6144	-0.0808097	-0.195986	0
73.8376	-0.0797789	-0.19598	0
74.1524	-0.0787671	-0.195992	0
74.7712	-0.0777362	-0.19598	0
82.5816	-0.0788244	-0.19599	0
86.2554	-0.0798361	-0.195987	0
90.0966	-0.080867	-0.195988	0
95.045	-0.0818979	-0.195985	0
101.082	-0.0829097	-0.195987	0
108.206	-0.0834633	-0.195982	0

File: 2024-06-25_S14_Icell_t1800_C0003_J01_deltaX-110,2mm_04_CP_C03.txt
time/s	Ewe/V	I/mA	error
1860.21	0.000333153	-0.194801	0
1860.21	-0.00399645	-0.195992	0
1860.21	-0.00642209	-0.195997	0
1860.21	-0.0077582	-0.195993	0
1860.21	-0.00897978	-0.195997	0
1860.21	-0.0100296	-0.195996	0
1860.21	-0.0121292	-0.19599	0
1860.21	-0.0131981	-0.195994	0
1860.21	-0.0149159	-0.195989	0
1860.21	-0.0159848	-0.195992	0
1860.21	-0.017779	-0.195992	0
1860.21	-0.0188097	-0.195992	0
1860.21	-0.0205276	-0.195996	0
1860.21	-0.0221691	-0.195994	0
1860.21	-0.0239442	-0.195996	0
1860.21	-0.0254521	-0.195989	0
1860.21	-0.0271317	-0.195995	0
1860.21	-0.0287923	-0.195992	0
1860.21	-0.0304147	-0.195996	0
1860.21	-0.0319799	-0.19599	0
1860.21	-0.0333923	-0.195994	0
1860.21	-0.0349193	-0.195994	0
1860.21	-0.036599	-0.196	0
1860.21	-0.0380115	-0.195991	0
1860.21	-0.039443	-0.196001	0
1860.21	-0.0410082	-0.195994	0
1860.21	-0.0423252	-0.195993	0
1860.21	-0.0437376	-0.195998	0
1860.22	-0.0452073	-0.195994	0
1860.22	-0.0466007	-0.195993	0
1860.22	-0.0479559	-0.195994	0
1860.22	-0.0491966	-0.195991	0
1860.22	-0.0506472	-0.195993	0
1860.22	-0.0518497	-0.195991	0
1860.22	-0.0531858	-0.195987	0
1860.22	-0.0546173	-0.195994	0
1860.22	-0.055858	-0.195989	0
1860.22	-0.0572132	-0.195993	0
1860.22	-0.0584921	-0.195993	0
1860.22	-0.0596564	-0.195995	0
1860.22	-0.0608398	-0.195992	0
1860.22	-0.0621186	-0.195991	0
1860.22	-0.0634357	-0.195993	0
1860.22	-0.0646572	-0.195991	0
1860.22	-0.0658406	-0.195997	0
1860.22	-0.0669477	-0.195995	0
1860.22	-0.0682265	-0.195994	0
1860.22	-0.0693336	-0.195994	0
1860.22	-0.0704788	-0.195994	0
1860.22	-0.0717768	-0.196	0
1860.22	-0.0729029	-0.195998	0
1860.22	-0.07401	-0.195996	0
1860.22	-0.0750216	-0.195998	0
1860.23	-0.0761096	-0.195993	0
1860.23	-0.0773312	-0.195991	0
1860.23	-0.0788772	-0.19599	0
1860.23	-0.079927	-0.195991	0
1860.23	-0.0810532	-0.195994	0
1860.23	-0.0821221	-0.195989	0
1860.23	-0.0831718	-0.195993	0
1860.23	-0.0842407	-0.195987	0
1860.23	-0.0856914	-0.195994	0
1860.23	-0.0867793	-0.195995	0
1860.23	-0.0881536	-0.195995	0
1860.23	-0.0892989	-0.195991	0
1860.23	-0.0905968	-0.195997	0
1860.23	-0.0917802	-0.195991	0
1860.23	-0.0931926	-0.195997	0
1860.23	-0.0945287	-0.195993	0
1860.23	-0.0959603	-0.195996	0
1860.23	-0.0973918	-0.195991	0
1860.23	-0.0987279	-0.195993	0
1860.23	-0.0997968	-0.195993	0
1860.24	-0.101057	-0.195996	0
1860.24	-0.102431	-0.195991	0
1860.24	-0.103729	-0.195991	0
1860.24	-0.104969	-0.195998	0
1860.24	-0.106286	-0.195998	0
1860.24	-0.107489	-0.19599	0
1860.24	-0.108768	-0.195994	0
1860.24	-0.109932	-0.19599	0
1860.24	-0.11123	-0.195996	0
1860.24	-0.112299	-0.195992	0
1860.24	-0.113597	-0.195996	0
1860.24	-0.114742	-0.195991	0
1860.24	-0.115849	-0.196	0
1860.24	-0.117052	-0.195991	0
1860.24	-0.118178	-0.195991	0
1860.24	-0.119342	-0.195995	0
1860.24	-0.120392	-0.195993	0
1860.25	-0.121404	-0.195989	0
1860.25	-0.122587	-0.195995	0
1860.25	-0.123904	-0.195991	0
1860.25	-0.125049	-0.196001	0
1860.25	-0.126328	-0.19599	0
1860.25	-0.12734	-0.195998	0
1860.25	-0.128466	-0.195993	0
1860.25	-0.129726	-0.195999	0
1860.25	-0.131004	-0.19599	0
1860.25	-0.132283	-0.195985	0
1860.25	-0.133581	-0.195992	0
1860.25	-0.134612	-0.196001	0
1860.25	-0.1357	-0.195995	0
1860.25	-0.136807	-0.195996	0
1860.26	-0.137914	-0.195993	0
1860.26	-0.139117	-0.195991	0
1860.26	-0.140166	-0.195987	0
1860.26	-0.141426	-0.195992	0
1860.26	-0.142743	-0.195997	0
1860.26	-0.143755	-0.195991	0
1860.26	-0.144785	-0.195988	0
1860.26	-0.145912	-0.195995	0
1860.26	-0.147114	-0.195997	0
1860.26	-0.148297	-0.195991	0
1860.26	-0.149347	-0.19599	0
1860.27	-0.150493	-0.195994	0
1860.27	-0.151676	-0.195994	0
1860.27	-0.152898	-0.195989	0
1860.27	-0.154138	-0.195993	0
1860.27	-0.15515	-0.195991	0
1860.27	-0.156161	-0.195997	0
1860.27	-0.157173	-0.195991	0
1860.27	-0.158566	-0.195996	0
1860.27	-0.159578	-0.195997	0
1860.28	-0.160609	-0.195994	0
1860.28	-0.161639	-0.195993	0
1860.28	-0.162804	-0.195993	0
1860.28	-0.163834	-0.195998	0
1860.28	-0.164961	-0.196	0
1860.28	-0.166106	-0.195994	0
1860.28	-0.167232	-0.196	0
1860.29	-0.168282	-0.195993	0
1860.29	-0.169351	-0.195996	0
1860.29	-0.170362	-0.195996	0
1860.29	-0.171393	-0.195993	0
1860.3	-0.172424	-0.195995	0
1860.31	-0.171393	-0.195991	0
1860.31	-0.170343	-0.195989	0
1860.31	-0.16916	-0.195996	0
1860.31	-0.168034	-0.195998	0
1860.32	-0.166965	-0.195995	0
1860.32	-0.165953	-0.195996	0
1860.32	-0.164922	-0.195993	0
1860.32	-0.163815	-0.195996	0
1860.32	-0.162594	-0.195997	0
1860.32	-0.161525	-0.195992	0
1860.32	-0.160513	-0.195991	0
1860.33	-0.159349	-0.195994	0
1860.33	-0.158318	-0.196001	0
1860.33	-0.157154	-0.195996	0
1860.33	-0.156085	-0.195991	0
1860.33	-0.154978	-0.195996	0
1860.33	-0.153795	-0.195992	0
1860.33	-0.152726	-0.19599	0
1860.33	-0.151561	-0.195994	0
1860.34	-0.150493	-0.195993	0
1860.34	-0.149462	-0.195996	0
1860.34	-0.148297	-0.195999	0
1860.34	-0.147171	-0.195996	0
1860.34	-0.146007	-0.195997	0
1860.34	-0.144824	-0.195998	0
1860.34	-0.143755	-0.195993	0
1860.34	-0.142743	-0.195988	0
1860.35	-0.141731	-0.195989	0
1860.35	-0.140663	-0.195992	0
1860.35	-0.139517	-0.195991	0
1860.35	-0.138296	-0.195991	0
1860.35	-0.137131	-0.195994	0
1860.35	-0.136043	-0.195997	0
1860.35	-0.135013	-0.195993	0
1860.36	-0.133772	-0.195989	0
1860.36	-0.13276	-0.195993	0
1860.36	-0.131634	-0.195994	0
1860.36	-0.130565	-0.195994	0
1860.36	-0.129439	-0.195991	0
1860.36	-0.128409	-0.195998	0
1860.36	-0.127397	-0.195997	0
1860.37	-0.126385	-0.195996	0
1860.37	-0.125355	-0.195993	0
1860.37	-0.124267	-0.195992	0
1860.37	-0.123121	-0.196001	0
1860.37	-0.121995	-0.195993	0
1860.37	-0.120965	-0.195993	0
1860.38	-0.119915	-0.195987	0
1860.38	-0.118731	-0.195997	0
1860.38	-0.117529	-0.195998	0
1860.38	-0.116479	-0.195996	0
1860.39	-0.115372	-0.195995	0
1860.39	-0.11436	-0.195996	0
1860.39	-0.113215	-0.195995	0
1860.39	-0.112184	-0.195997	0
1860.4	-0.111135	-0.195995	0
1860.4	-0.110085	-0.195991	0
1860.4	-0.109035	-0.195991	0
1860.41	-0.107947	-0.195991	0
1860.41	-0.106916	-0.195994	0
1860.42	-0.105867	-0.196002	0
1860.42	-0.104836	-0.195998	0
1860.43	-0.103748	-0.195994	0
1860.43	-0.102717	-0.195994	0
1860.44	-0.101648	-0.195996	0
1860.45	-0.10056	-0.195994	0
1860.45	-0.0995296	-0.195993	0
1860.46	-0.0984416	-0.195989	0
1860.47	-0.0973537	-0.195998	0
1860.49	-0.096342	-0.195994	0
1860.5	-0.0953304	-0.196001	0
1860.52	-0.0942615	-0.195993	0
1860.54	-0.0932499	-0.195993	0
1860.56	-0.0922383	-0.196	0
1860.59	-0.0912076	-0.195994	0
1860.62	-0.0901959	-0.195995	0
1860.67	-0.0890507	-0.195991	0
1860.74	-0.0879627	-0.195997	0
1860.84	-0.0869511	-0.195996	0
1861.02	-0.0859013	-0.195996	0
1861.34	-0.0848897	-0.195997	0
1866.17	-0.0859204	-0.195996	0
1868.02	-0.086932	-0.195997	0
1869.91	-0.0879627	-0.195996	0
1871.01	-0.0884208	-0.195999	0