Folder: SUMMER-JOB-2024-MATERIALS-PHYSICS/EXPERIMENTAL-DATA/Electrochemical-cycling/S-series (part 6)

File: 2024-07-02_S25_TPcell_t1800_C0500_J01_newScript_02_CA_C02.txt
time/s	Ewe/V	I/mA	error
18.4322	0.0146015	-0.0250209	0
18.4942	0.0087215	-0.37146	0
18.5008	0.00866423	-0.36626	0
18.5074	0.00870241	-0.361079	0
18.5138	0.00866423	-0.355854	0
18.5216	0.00877877	-0.35061	0
18.5294	0.00875968	-0.345461	0
18.5362	0.00870241	-0.340388	0
18.5484	0.00881695	-0.334928	0
18.5608	0.00868332	-0.32948	0
18.5782	0.00887423	-0.324407	0
18.5884	0.00868332	-0.319271	0
18.6088	0.00881695	-0.314186	0
18.6338	0.00881695	-0.309011	0
18.6552	0.00870241	-0.303996	0
18.694	0.00874059	-0.298548	0
18.7416	0.00862605	-0.293361	0
18.8004	0.00875968	-0.288333	0
18.8746	0.00877877	-0.283063	0
19.0614	0.0087215	-0.277959	0
19.5354	0.00854968	-0.283273	0
19.8372	0.00860696	-0.288429	0
20.1482	0.00877877	-0.293444	0
20.3756	0.00858787	-0.298465	0
20.6018	0.00881695	-0.303582	0
20.8966	0.00866423	-0.309081	0
21.1816	0.00860696	-0.314084	0
21.3728	0.00862605	-0.319252	0
21.668	0.00864514	-0.324267	0
21.9158	0.00870241	-0.329384	0
22.0002	0.00866423	-0.334457	0
22.3304	0.00870241	-0.339644	0
22.5218	0.00870241	-0.34492	0
22.949	0.00866423	-0.349992	0
23.1754	0.00879786	-0.355479	0
23.6966	0.00874059	-0.360596	0
24.0948	0.00868332	-0.365732	0
24.5676	0.00864514	-0.370804	0
25.3264	0.00879786	-0.375851	0
25.483	0.00874059	-0.380867	0
26.0692	0.00870241	-0.38613	0
26.8886	0.00862605	-0.391247	0
28.2284	0.00864514	-0.396352	0
28.813	0.00856877	-0.40136	0
29.1094	0.00862605	-0.396288	0
29.1796	0.00870241	-0.401405	0
29.9178	0.00864514	-0.396237	0
31.4042	0.00868332	-0.391209	0
32.323	0.00874059	-0.386207	0
32.3596	0.00862605	-0.391228	0
32.3906	0.00868332	-0.385997	0
33.5428	0.0087215	-0.380956	0
34.7308	0.00881695	-0.375922	0
35.4812	0.00887423	-0.370544	0
35.4908	0.00874059	-0.375546	0
35.61	0.00860696	-0.370435	0
35.6656	0.00868332	-0.375501	0
35.6754	0.00860696	-0.370353	0
36.8582	0.00870241	-0.365344	0
37.5392	0.00874059	-0.360169	0
38.6582	0.00868332	-0.355141	0
39.8716	0.00870241	-0.350056	0
40.6236	0.00875968	-0.344423	0
41.5042	0.00868332	-0.339256	0
42.2716	0.00875968	-0.334132	0
42.9306	0.00870241	-0.32885	0
44.7446	0.00874059	-0.323682	0
45.6306	0.00877877	-0.318564	0
46.2406	0.00877877	-0.313129	0
46.8178	0.0087215	-0.307955	0
47.4084	0.00870241	-0.302933	0
47.4292	0.00868332	-0.30812	0
47.6338	0.00858787	-0.302558	0
47.6444	0.00870241	-0.307707	0
47.8088	0.00868332	-0.302679	0
48.0022	0.00868332	-0.297485	0
48.0128	0.00870241	-0.302634	0
48.549	0.00862605	-0.297371	0
49.2524	0.00874059	-0.302399	0
49.3172	0.0087215	-0.297326	0
50.141	0.00870241	-0.292164	0
52.4142	0.00877877	-0.287149	0
55.3378	0.00860696	-0.281949	0
58.7834	0.00866423	-0.276444	0
58.9542	0.00858787	-0.281542	0
59.0742	0.00870241	-0.276368	0
59.1056	0.00879786	-0.281396	0
61.3004	0.00866423	-0.276381	0
64.2312	0.00868332	-0.271314	0
67.915	0.00868332	-0.266045	0
69.556	0.00860696	-0.271302	0
72.6006	0.00860696	-0.266191	0
76.4002	0.00875968	-0.271213	0
80.013	0.0087215	-0.265554	0
80.8804	0.00862605	-0.270602	0
83.704	0.00868332	-0.275789	0
86.698	0.0087215	-0.28095	0
89.2284	0.00870241	-0.275948	0
89.4784	0.00870241	-0.281084	0
94.5974	0.00881695	-0.286347	0
99.3358	0.00864514	-0.291528	0
103.255	0.0087215	-0.29655	0
104.25	0.0087215	-0.30166	0
105.3	0.00870241	-0.296594	0
106.984	0.00866423	-0.291343	0
109.869	0.00887423	-0.296823	0
117.559	0.0087215	-0.291649	0
117.923	0.00870241	-0.296779	0
118.313	0.00875968	-0.291611	0
118.498	0.00870241	-0.29683	0
118.853	0.00877877	-0.291713	0
118.923	0.00860696	-0.297103	0
119.006	0.00877877	-0.29184	0
119.09	0.00874059	-0.296862	0
119.176	0.00870241	-0.291662	0
119.258	0.00883604	-0.296702	0
119.352	0.00870241	-0.291579	0
119.424	0.00864514	-0.296671	0
119.527	0.00874059	-0.291439	0
119.566	0.00858787	-0.286093	0
119.603	0.00881695	-0.291636	0
119.692	0.00879786	-0.286379	0
119.764	0.0087215	-0.291509	0
119.884	0.00874059	-0.286487	0
119.957	0.00870241	-0.291509	0
120.055	0.00866423	-0.286506	0
120.131	0.00877877	-0.291636	0
120.225	0.0087215	-0.286201	0
120.303	0.00874059	-0.29135	0
120.401	0.00866423	-0.286207	0
120.476	0.00875968	-0.291547	0
120.594	0.00875968	-0.286513	0
120.658	0.0087215	-0.291706	0
120.771	0.0087215	-0.286137	0
120.853	0.00862605	-0.29128	0
120.981	0.0087215	-0.285902	0
121.057	0.00864514	-0.291114	0
121.505	0.00860696	-0.286086	0
121.565	0.00875968	-0.291617	0
121.758	0.00868332	-0.286265	0
121.816	0.00866423	-0.291891	0
121.95	0.00870241	-0.296989	0
122.006	0.0087215	-0.291681	0
122.109	0.00868332	-0.297027	0
122.29	0.00875968	-0.291923	0
122.403	0.00862605	-0.297358	0
122.62	0.00875968	-0.292215	0
122.791	0.0085115	-0.297511	0
122.974	0.00875968	-0.292438	0
123.208	0.00874059	-0.297473	0
123.362	0.0087215	-0.292139	0
123.496	0.00877877	-0.297409	0
123.773	0.00853059	-0.292273	0
125.907	0.00879786	-0.297434	0
128.903	0.00866423	-0.296384	0

File: 2024-07-04_S26_Icell_t1800_C0010_J01_deltaX-109,8mm_12mmLi_04_CP_C02.txt
time/s	Ewe/V	I/mA	error	Ece/V
1860.21	-0.0270445	-1.12271	0	-0.000421124
1860.21	-0.0450057	-1.13069	0	5.9917e-05
1860.21	-0.0510819	-1.13077	0	0.000153525
1860.21	-0.0539833	-1.13078	0	7.71812e-05
1860.21	-0.0557585	-1.13079	0	9.62671e-05
1860.21	-0.057152	-1.13083	0	3.90095e-05
1860.21	-0.05845	-1.13083	0	0.000115353
1860.21	-0.0603206	-1.13077	0	1.99236e-05
1860.21	-0.0619813	-1.13081	0	0.000172611
1860.21	-0.0635084	-1.13077	0	1.99236e-05
1860.21	-0.0648827	-1.1308	0	0.000248954
1860.21	-0.0662953	-1.13084	0	7.71812e-05
1860.21	-0.0674024	-1.13076	0	8.37723e-07
1860.21	-0.0688531	-1.13075	0	-7.55058e-05
1860.21	-0.0698839	-1.13081	0	-1.82481e-05
1860.21	-0.0711246	-1.13079	0	0.000172611
1860.21	-0.0724417	-1.13074	0	0.000210782
1860.21	-0.0734534	-1.13081	0	0.000191696
1860.21	-0.0745605	-1.13074	0	0.000115353
1860.21	-0.0756485	-1.13084	0	9.62671e-05
1860.21	-0.0766984	-1.13086	0	1.99236e-05
1860.21	-0.0777673	-1.13084	0	0.000134439
1860.21	-0.0792944	-1.13081	0	0.000153525
1860.21	-0.0804206	-1.13082	0	0.000134439
1860.21	-0.0814323	-1.13081	0	0.000210782
1860.21	-0.0828067	-1.13086	0	3.90095e-05
1860.22	-0.0838565	-1.13075	0	5.80953e-05
1860.22	-0.085269	-1.13079	0	0.000248954
1860.22	-0.0867198	-1.13087	0	5.80953e-05
1860.22	-0.0881896	-1.13076	0	0.000134439
1860.22	-0.0892203	-1.13076	0	8.37723e-07
1860.22	-0.0905183	-1.13083	0	0.000229868
1860.22	-0.0917591	-1.13084	0	7.71812e-05
1860.22	-0.0929616	-1.13082	0	0.000115353
1860.22	-0.0944505	-1.13081	0	7.71812e-05
1860.22	-0.0957676	-1.13081	0	1.99236e-05
1860.22	-0.0969511	-1.13083	0	8.37723e-07
1860.22	-0.0982109	-1.13081	0	9.62671e-05
1860.22	-0.0994326	-1.13078	0	3.90095e-05
1860.22	-0.100673	-1.13078	0	-1.82481e-05
1860.22	-0.102067	-1.13078	0	9.62671e-05
1860.22	-0.103269	-1.13084	0	3.90095e-05
1860.22	-0.1043	-1.13084	0	0.000134439
1860.23	-0.105484	-1.13083	0	0.000134439
1860.23	-0.106724	-1.1308	0	0.000191696
1860.23	-0.107831	-1.13079	0	9.62671e-05
1860.23	-0.108977	-1.13077	0	3.90095e-05
1860.23	-0.11016	-1.13078	0	3.90095e-05
1860.23	-0.111267	-1.1308	0	1.99236e-05
1860.23	-0.112394	-1.13075	0	-5.64199e-05
1860.23	-0.113482	-1.13074	0	7.71812e-05
1860.23	-0.114551	-1.13083	0	5.80953e-05
1860.23	-0.115619	-1.13076	0	5.80953e-05
1860.23	-0.116669	-1.13084	0	0.000153525
1860.23	-0.117738	-1.13086	0	0.000210782
1860.23	-0.118884	-1.13078	0	0.000191696
1860.23	-0.119991	-1.13076	0	8.37723e-07
1860.23	-0.121193	-1.13081	0	7.71812e-05
1860.23	-0.122281	-1.13077	0	0.000115353
1860.24	-0.12335	-1.13074	0	9.62671e-05
1860.24	-0.124629	-1.13085	0	0.000210782
1860.24	-0.125717	-1.13087	0	3.90095e-05
1860.24	-0.126882	-1.13083	0	3.90095e-05
1860.24	-0.128275	-1.13084	0	9.62671e-05
1860.24	-0.129611	-1.1308	0	0.000248954
1860.24	-0.130756	-1.13086	0	-7.55058e-05
1860.24	-0.131806	-1.13083	0	7.71812e-05
1860.24	-0.133028	-1.13083	0	7.71812e-05
1860.24	-0.134269	-1.13086	0	-3.7334e-05
1860.24	-0.135509	-1.13077	0	0.000115353
1860.24	-0.136693	-1.13084	0	0.000210782
1860.24	-0.137838	-1.13083	0	0.000134439
1860.25	-0.139003	-1.13088	0	0.000153525
1860.25	-0.140167	-1.13084	0	0.000248954
1860.25	-0.141198	-1.1308	0	9.62671e-05
1860.25	-0.142209	-1.13083	0	-1.82481e-05
1860.25	-0.143317	-1.13075	0	0.000153525
1860.25	-0.144481	-1.13081	0	-3.7334e-05
1860.25	-0.145664	-1.13078	0	7.71812e-05
1860.25	-0.147077	-1.13088	0	0.000134439
1860.25	-0.148241	-1.13079	0	0.000115353
1860.25	-0.149272	-1.13082	0	3.90095e-05
1860.25	-0.150475	-1.13077	0	0.000134439
1860.25	-0.151544	-1.13079	0	5.80953e-05
1860.26	-0.152765	-1.13083	0	-3.7334e-05
1860.26	-0.153815	-1.13084	0	1.99236e-05
1860.26	-0.154999	-1.13077	0	5.80953e-05
1860.26	-0.15601	-1.13083	0	8.37723e-07
1860.26	-0.157232	-1.13081	0	3.90095e-05
1860.26	-0.158244	-1.13079	0	0.000153525
1860.26	-0.159427	-1.13084	0	1.99236e-05
1860.26	-0.160611	-1.13076	0	9.62671e-05
1860.26	-0.161622	-1.13082	0	5.80953e-05
1860.26	-0.162787	-1.13081	0	0.000115353
1860.26	-0.163875	-1.13083	0	-7.55058e-05
1860.27	-0.165058	-1.13083	0	1.99236e-05
1860.27	-0.166127	-1.13077	0	9.62671e-05
1860.27	-0.167196	-1.13079	0	0.000134439
1860.27	-0.168322	-1.13086	0	0.000153525
1860.27	-0.169506	-1.13085	0	7.71812e-05
1860.27	-0.170746	-1.13081	0	0.000172611
1860.27	-0.172006	-1.13076	0	0.000172611
1860.27	-0.173171	-1.13083	0	8.37723e-07
1860.27	-0.174297	-1.13078	0	9.62671e-05
1860.28	-0.175404	-1.13083	0	5.80953e-05
1860.28	-0.176549	-1.13075	0	8.37723e-07
1860.28	-0.177733	-1.13077	0	5.80953e-05
1860.28	-0.17884	-1.13074	0	3.90095e-05
1860.28	-0.180138	-1.13075	0	5.80953e-05
1860.28	-0.181321	-1.13076	0	1.99236e-05
1860.28	-0.18239	-1.13082	0	0.000153525
1860.28	-0.183421	-1.13081	0	7.71812e-05
1860.28	-0.184452	-1.13083	0	9.62671e-05
1860.29	-0.185559	-1.13082	0	1.99236e-05
1860.29	-0.186647	-1.13083	0	3.90095e-05
1860.29	-0.187659	-1.13079	0	0.000115353
1860.29	-0.18869	-1.13079	0	5.80953e-05
1860.29	-0.189911	-1.13078	0	9.62671e-05
1860.29	-0.190942	-1.13083	0	0.000153525
1860.29	-0.191992	-1.13079	0	0.000134439
1860.3	-0.193061	-1.13076	0	7.71812e-05
1860.3	-0.194206	-1.13079	0	-1.82481e-05
1860.3	-0.195332	-1.13084	0	5.80953e-05
1860.3	-0.196439	-1.13077	0	0.000115353
1860.3	-0.19747	-1.13081	0	5.80953e-05
1860.3	-0.19852	-1.13083	0	7.71812e-05
1860.31	-0.199646	-1.13084	0	9.62671e-05
1860.31	-0.200772	-1.13081	0	1.99236e-05
1860.31	-0.20186	-1.13077	0	9.62671e-05
1860.31	-0.202891	-1.13078	0	7.71812e-05
1860.31	-0.203903	-1.13083	0	0.000153525
1860.32	-0.204934	-1.13088	0	7.71812e-05
1860.32	-0.205964	-1.13077	0	7.71812e-05
1860.32	-0.207033	-1.13076	0	3.90095e-05
1860.33	-0.208064	-1.13084	0	7.71812e-05
1860.35	-0.207052	-1.13081	0	1.99236e-05
1860.35	-0.205984	-1.13077	0	7.71812e-05
1860.35	-0.204895	-1.1308	0	0.000115353
1860.36	-0.203769	-1.13077	0	0.000134439
1860.36	-0.2027	-1.1308	0	0.000153525
1860.36	-0.201593	-1.1308	0	0.000153525
1860.37	-0.20041	-1.1308	0	5.80953e-05
1860.37	-0.199322	-1.13081	0	3.90095e-05
1860.37	-0.198234	-1.13079	0	0.000115353
1860.37	-0.197222	-1.1308	0	-1.82481e-05
1860.38	-0.196153	-1.13087	0	0.000172611
1860.38	-0.195122	-1.13079	0	0.000210782
1860.38	-0.194072	-1.13081	0	-9.45916e-05
1860.38	-0.192984	-1.13077	0	3.90095e-05
1860.39	-0.191954	-1.13084	0	-1.82481e-05
1860.39	-0.190923	-1.13074	0	5.80953e-05
1860.39	-0.189911	-1.13077	0	0.000248954
1860.4	-0.188842	-1.13086	0	1.99236e-05
1860.4	-0.187811	-1.13083	0	0.000172611
1860.4	-0.186743	-1.13083	0	0.000115353
1860.41	-0.18554	-1.13084	0	0.000134439
1860.41	-0.184528	-1.13084	0	9.62671e-05
1860.42	-0.183517	-1.13081	0	7.71812e-05
1860.42	-0.182505	-1.13082	0	1.99236e-05
1860.43	-0.181436	-1.1308	0	-1.82481e-05
1860.43	-0.18031	-1.13083	0	0.00026804
1860.44	-0.179298	-1.13074	0	3.90095e-05
1860.44	-0.178229	-1.13083	0	8.37723e-07
1860.45	-0.177217	-1.13079	0	1.99236e-05
1860.46	-0.176206	-1.13081	0	8.37723e-07
1860.47	-0.175194	-1.13081	0	-1.82481e-05
1860.47	-0.174163	-1.13079	0	-1.82481e-05
1860.48	-0.173094	-1.13081	0	0.000210782
1860.49	-0.172064	-1.13079	0	0.000115353
1860.51	-0.171014	-1.13084	0	7.71812e-05
1860.52	-0.170002	-1.13084	0	8.37723e-07
1860.53	-0.168971	-1.13084	0	5.80953e-05
1860.55	-0.16796	-1.13081	0	9.62671e-05
1860.57	-0.166929	-1.13084	0	-1.82481e-05
1860.59	-0.165803	-1.13079	0	0.000115353
1860.62	-0.164753	-1.13085	0	1.99236e-05
1860.65	-0.163722	-1.13083	0	9.62671e-05
1860.68	-0.162691	-1.13077	0	9.62671e-05
1860.72	-0.161641	-1.13085	0	7.71812e-05
1860.77	-0.16063	-1.13084	0	0.000134439
1860.83	-0.159618	-1.13075	0	7.71812e-05
1860.9	-0.158606	-1.13083	0	7.71812e-05
1860.98	-0.157595	-1.13081	0	3.90095e-05
1861.07	-0.156564	-1.13085	0	0.00026804
1861.19	-0.155552	-1.13082	0	0.000191696
1861.32	-0.154541	-1.13074	0	0.000153525
1861.49	-0.153472	-1.13083	0	1.99236e-05
1861.69	-0.152422	-1.13084	0	0.000115353
1861.91	-0.15141	-1.13081	0	9.62671e-05
1862.17	-0.150398	-1.13084	0	9.62671e-05
1862.48	-0.149348	-1.13083	0	9.62671e-05
1862.88	-0.148337	-1.13079	0	5.80953e-05
1863.28	-0.147325	-1.13083	0	0.000134439
1863.78	-0.146294	-1.13081	0	0.000134439
1864.37	-0.145283	-1.13077	0	5.80953e-05
1864.95	-0.144271	-1.13079	0	1.99236e-05
1865.59	-0.143259	-1.13079	0	0.000134439
1866.31	-0.142229	-1.13079	0	1.99236e-05
1867.07	-0.141217	-1.13082	0	5.80953e-05
1867.88	-0.140205	-1.13084	0	0.000153525
1868.76	-0.139174	-1.13091	0	-1.82481e-05
1869.65	-0.138144	-1.13087	0	8.37723e-07
1870.63	-0.137132	-1.13083	0	8.37723e-07
1871.71	-0.13612	-1.13077	0	0.000172611
1872.8	-0.135109	-1.13086	0	1.99236e-05
1874.09	-0.134059	-1.13083	0	0.000115353
1875.43	-0.133047	-1.13083	0	0.000172611
1877	-0.132016	-1.1308	0	7.71812e-05
1878.75	-0.130966	-1.13083	0	3.90095e-05
1880.73	-0.129936	-1.13079	0	5.80953e-05
1883.03	-0.128848	-1.13079	0	9.62671e-05
1885.8	-0.127836	-1.13087	0	0.000115353
1889.12	-0.126805	-1.13085	0	8.37723e-07
1893.17	-0.125794	-1.13082	0	8.37723e-07
1896.21	-0.125297	-1.13086	0	0.000115353

File: 2024-07-04_S28_Icell_t1800_C0010_J01_deltaX-110,0mm_12mmLi-polished_02_MB_C05.txt
time/s	Ewe/V	I/mA	error	Ece/V
60.053	2.89691	-0.0250213	0	-0.000636973
60.1744	0.00935806	-32.4137	0	6.86792e-05
60.176	0.00935806	-32.0858	0	-7.67139e-06
60.1776	0.0092817	-31.7707	0	6.86792e-05
60.1792	0.00920534	-31.4587	0	3.05039e-05
60.1808	0.00924352	-31.1582	0	6.86792e-05
60.1824	0.00933897	-30.8603	0	3.05039e-05
60.184	0.00931988	-30.5719	0	-2.6759e-05
60.1856	0.00933897	-30.2905	0	-2.6759e-05
60.1872	0.00930079	-30.0097	0	-7.67139e-06
60.1888	0.0092817	-29.7443	0	1.14163e-05
60.1904	0.00918625	-29.4762	0	3.05039e-05
60.192	0.0092817	-29.2158	0	0.000202293
60.1936	0.0092817	-28.9625	0	4.95916e-05
60.1952	0.00924352	-28.7174	0	1.14163e-05
60.1968	0.00924352	-28.4742	0	-6.49344e-05
60.1984	0.0092817	-28.2284	0	-8.4022e-05
60.2	0.00935806	-27.9973	0	6.86792e-05
60.2018	0.00922443	-27.7344	0	4.95916e-05
60.2034	0.00930079	-27.5097	0	1.14163e-05
60.2054	0.00941533	-27.2283	0	6.86792e-05
60.2074	0.00930079	-26.959	0	0.000125942
60.2094	0.00930079	-26.6871	0	0.00014503
60.2114	0.00931988	-26.4331	0	1.14163e-05
60.2134	0.00931988	-26.181	0	-0.00010311
60.2154	0.00933897	-25.9282	0	0.000106855
60.2176	0.00935806	-25.666	0	-0.000122197
60.2198	0.00930079	-25.3998	0	-4.58467e-05
60.2222	0.00930079	-25.1223	0	3.05039e-05
60.2244	0.00939624	-24.8784	0	1.14163e-05
60.2264	0.00924352	-24.6486	0	-2.6759e-05
60.2286	0.00924352	-24.408	0	-2.6759e-05
60.231	0.00931988	-24.1552	0	4.95916e-05
60.2334	0.00924352	-23.9076	0	1.14163e-05
60.2356	0.00930079	-23.6752	0	-6.49344e-05
60.238	0.00931988	-23.4352	0	3.05039e-05
60.2406	0.00933897	-23.1767	0	-0.000141285
60.243	0.00922443	-22.9564	0	-8.4022e-05
60.2454	0.00935806	-22.7241	0	-7.67139e-06
60.2478	0.00922443	-22.5	0	-2.6759e-05
60.2504	0.00930079	-22.2784	0	-4.58467e-05
60.253	0.0092817	-22.0359	0	1.14163e-05
60.2556	0.00930079	-21.8181	0	-4.58467e-05
60.2584	0.00922443	-21.5807	0	0.000106855
60.2614	0.00930079	-21.333	0	4.95916e-05
60.2642	0.0092817	-21.1095	0	-2.6759e-05
60.2672	0.00930079	-20.8753	0	-7.67139e-06
60.2702	0.00930079	-20.6384	0	8.77669e-05
60.2734	0.0092817	-20.3971	0	-7.67139e-06
60.2766	0.00926261	-20.1699	0	-7.67139e-06
60.2798	0.00920534	-19.9451	0	3.05039e-05
60.2832	0.0092817	-19.7051	0	-0.00010311
60.2864	0.00914807	-19.4861	0	1.14163e-05
60.2902	0.00926261	-19.234	0	3.05039e-05
60.2936	0.00926261	-19.0201	0	6.86792e-05
60.297	0.00930079	-18.7998	0	-0.000160373
60.3008	0.00930079	-18.5579	0	4.95916e-05
60.3044	0.00939624	-18.3504	0	-2.6759e-05
60.3082	0.00922443	-18.1218	0	-4.58467e-05
60.312	0.00933897	-17.9047	0	0.00014503
60.316	0.00926261	-17.68	0	6.86792e-05
60.32	0.00931988	-17.4552	0	-2.6759e-05
60.3242	0.00933897	-17.2394	0	3.05039e-05
60.3284	0.00937715	-17.0115	0	4.95916e-05
60.333	0.00924352	-16.7785	0	-4.58467e-05
60.3376	0.00924352	-16.5614	0	-4.58467e-05
60.3424	0.00935806	-16.3239	0	-4.58467e-05
60.3472	0.00924352	-16.0967	0	-0.000122197
60.352	0.00931988	-15.877	0	-0.00010311
60.3572	0.00924352	-15.6491	0	-4.58467e-05
60.3622	0.00918625	-15.4326	0	-7.67139e-06
60.3674	0.00926261	-15.2073	0	1.14163e-05
60.3728	0.00926261	-14.9845	0	-0.00010311
60.3784	0.0092817	-14.7648	0	-6.49344e-05
60.384	0.0092817	-14.5464	0	1.14163e-05
60.3896	0.00930079	-14.3294	0	-2.6759e-05
60.3954	0.00937715	-14.1174	0	6.86792e-05
60.4014	0.00935806	-13.899	0	1.14163e-05
60.4074	0.00922443	-13.6889	0	-8.4022e-05
60.4134	0.0092817	-13.4769	0	6.86792e-05
60.4198	0.00924352	-13.2668	0	6.86792e-05
60.4262	0.00930079	-13.0548	0	6.86792e-05
60.433	0.00935806	-12.8364	0	-2.6759e-05
60.4404	0.00924352	-12.6117	0	-8.4022e-05
60.448	0.00922443	-12.3921	0	-7.67139e-06
60.4554	0.00935806	-12.1769	0	8.77669e-05
60.4628	0.00924352	-11.9655	0	1.14163e-05
60.4708	0.00935806	-11.7522	0	-7.67139e-06
60.4792	0.00922443	-11.5301	0	0.000106855
60.4872	0.00939624	-11.3219	0	1.14163e-05
60.4958	0.00937715	-11.1137	0	3.05039e-05
60.5046	0.00918625	-10.9004	0	-4.58467e-05
60.5142	0.00926261	-10.6872	0	4.95916e-05
60.5238	0.00926261	-10.4745	0	-0.00010311
60.5338	0.00930079	-10.2632	0	3.05039e-05
60.5442	0.00939624	-10.0499	0	-4.58467e-05
60.5552	0.00926261	-9.83852	0	1.14163e-05
60.566	0.00933897	-9.63161	0	1.14163e-05
60.5778	0.00926261	-9.4247	0	4.95916e-05
60.5904	0.00941533	-9.20761	0	-4.58467e-05
60.6034	0.00941533	-9.00134	0	3.05039e-05
60.6168	0.00937715	-8.79316	0	-4.58467e-05
60.6318	0.00939624	-8.57606	0	-4.58467e-05
60.6468	0.00930079	-8.36215	0	1.14163e-05
60.6638	0.00924352	-8.14633	0	-0.000160373
60.6806	0.00926261	-7.93752	0	-8.4022e-05
60.6996	0.0092817	-7.72042	0	-7.67139e-06
60.7192	0.0092817	-7.50715	0	3.05039e-05
60.7396	0.00916716	-7.30215	0	1.14163e-05
60.7616	0.00933897	-7.09588	0	-7.67139e-06
60.7854	0.00935806	-6.88388	0	-2.6759e-05
60.8106	0.00935806	-6.67124	0	-0.000141285
60.838	0.00935806	-6.45988	0	-4.58467e-05
60.8672	0.00931988	-6.24724	0	-0.000122197
60.899	0.00922443	-6.03524	0	3.05039e-05
60.9328	0.00922443	-5.82579	0	-0.00010311
60.9688	0.00926261	-5.61443	0	3.05039e-05
61.0078	0.00922443	-5.40561	0	4.95916e-05
61.0468	0.00931988	-5.20252	0	3.05039e-05
61.0912	0.00926261	-4.99434	0	-7.67139e-06
61.1374	0.00924352	-4.78998	0	1.14163e-05
61.1874	0.00931988	-4.58498	0	3.05039e-05
61.2406	0.00930079	-4.37298	0	8.77669e-05
61.3196	0.00930079	-4.12266	0	3.05039e-05
61.3806	0.00933897	-3.92154	0	1.14163e-05
61.4468	0.0092817	-3.71908	0	0.000125942
61.5186	0.00926261	-3.517	0	-7.67139e-06
61.5966	0.00930079	-3.31474	0	0.000125942
61.6818	0.0092817	-3.11342	0	4.95916e-05
61.776	0.0092817	-2.91186	0	-7.67139e-06
61.882	0.00931988	-2.7094	0	-7.67139e-06
62.0012	0.00926261	-2.50853	0	-6.49344e-05
62.139	0.00935806	-2.30601	0	-0.00010311
62.3012	0.00937715	-2.104	0	-6.49344e-05
62.4938	0.00930079	-1.9025	0	-4.58467e-05
62.7282	0.00933897	-1.70169	0	1.14163e-05
63.0222	0.00931988	-1.50121	0	3.05039e-05
63.4066	0.0092817	-1.3006	0	-7.67139e-06
63.9314	0.00920534	-1.09935	0	8.77669e-05
64.692	0.00930079	-0.898355	0	0.000125942
65.895	0.00926261	-0.697806	0	-4.58467e-05
68.1	0.00935806	-0.497131	0	-2.6759e-05
73.7014	0.00931988	-0.296469	0	8.77669e-05
99.8372	0.00924352	-0.116103	0	4.95916e-05
139.837	0.00922443	-0.0679596	0	1.14163e-05
179.837	0.00937715	-0.0491415	0	-6.49344e-05
219.837	0.00926261	-0.038823	0	3.05039e-05
259.837	0.00920534	-0.0309881	0	-6.49344e-05
299.837	0.00933897	-0.0256419	0	-2.6759e-05
339.837	0.00935806	-0.0215682	0	-2.6759e-05
379.837	0.00931988	-0.0182384	0	1.14163e-05
419.837	0.00937715	-0.0159032	0	4.95916e-05
459.837	0.00933897	-0.0138823	0	-6.49344e-05
499.837	0.0092817	-0.0120637	0	-7.67139e-06
539.837	0.00922443	-0.0104137	0	1.14163e-05
579.837	0.00926261	-0.0092843	0	-0.00010311
619.837	0.0092817	-0.00820384	0	-4.58467e-05
659.837	0.00930079	-0.00733528	0	0.000106855
699.837	0.00930079	-0.00673843	0	-0.000122197
739.837	0.00931988	-0.00614284	0	-8.4022e-05
779.837	0.00916716	-0.00560007	0	-7.67139e-06
819.837	0.00922443	-0.00511902	0	-2.6759e-05
859.837	0.0092817	-0.00478051	0	1.14163e-05
899.837	0.00930079	-0.00440734	0	-4.58467e-05
939.837	0.00924352	-0.00409836	0	1.14163e-05
979.837	0.00933897	-0.00382981	0	-7.67139e-06
1019.84	0.00916716	-0.00360588	0	-4.58467e-05
1059.84	0.00933897	-0.003378	0	-0.000141285
1099.84	0.00922443	-0.00318456	0	6.86792e-05
1139.84	0.00931988	-0.00299525	0	-2.6759e-05
1179.84	0.0092817	-0.00286158	0	-6.49344e-05
1219.84	0.00930079	-0.00272785	0	0.000125942
1259.84	0.00937715	-0.00261607	0	-2.6759e-05
1299.84	0.00924352	-0.0025071	0	3.05039e-05
1339.84	0.00930079	-0.00238291	0	1.14163e-05
1379.84	0.0092817	-0.00227152	0	-0.00010311
1419.84	0.00933897	-0.00217687	0	4.95916e-05
1459.84	0.0092817	-0.0020691	0	1.14163e-05
1499.84	0.00926261	-0.00202302	0	1.14163e-05
1539.84	0.00926261	-0.00194339	0	6.86792e-05
1579.84	0.00924352	-0.00184313	0	8.77669e-05
1619.84	0.0092817	-0.00183034	0	-4.58467e-05
1659.84	0.0092817	-0.00172932	0	6.86792e-05
1699.84	0.0092817	-0.00167388	0	-8.4022e-05
1739.84	0.00931988	-0.0016418	0	-2.6759e-05
1779.84	0.00930079	-0.00157872	0	-8.4022e-05
1819.84	0.00930079	-0.0015707	0	-4.58467e-05
1859.84	0.00922443	-0.00148782	0	1.14163e-05
1860.05	0.00945351	-0.00148871	0	-2.6759e-05