Folder: SUMMER-JOB-2024-MATERIALS-PHYSICS/EXPERIMENTAL-DATA/Electrochemical-cycling/S-series (part 2)

File: 2024-06-19_S06_Icell_t1800_C0001_J01_04_CP_C10.txt
time/s	Ewe/V	I/mA	error	Ece/V
1860.21	0.0132209	-0.19474	0	-0.00147499
1860.21	0.00736777	-0.195993	0	-0.00131463
1860.21	0.00387749	-0.195996	0	-4.38561e-06
1860.21	0.00246476	-0.196002	0	-6.16571e-05
1860.21	0.00122384	-0.196002	0	0.000110157
1860.21	0.000135653	-0.195995	0	0.000167429
1860.21	-0.00177345	-0.196001	0	7.19764e-05
1860.21	-0.003358	-0.19601	0	-4.38561e-06
1860.21	-0.00513347	-0.196001	0	5.28859e-05
1860.21	-0.00648893	-0.195996	0	0.000129248
1860.21	-0.00799712	-0.196	0	7.19764e-05
1860.21	-0.00946713	-0.195998	0	7.19764e-05
1860.21	-0.0108035	-0.196004	0	9.10669e-05
1860.21	-0.0121208	-0.195999	0	5.28859e-05
1860.21	-0.0133999	-0.195998	0	0.000129248
1860.21	-0.0147172	-0.196	0	9.10669e-05
1860.21	-0.0157863	-0.196006	0	0.000186519
1860.21	-0.0171417	-0.196004	0	7.19764e-05
1860.21	-0.0182681	-0.195999	0	-4.38561e-06
1860.21	-0.0193181	-0.196	0	-4.25666e-05
1860.21	-0.0204636	-0.196001	0	0.000110157
1860.21	-0.0215708	-0.195998	0	7.19764e-05
1860.21	-0.0230981	-0.196001	0	5.28859e-05
1860.21	-0.0242054	-0.196005	0	5.28859e-05
1860.21	-0.0252363	-0.196007	0	3.37954e-05
1860.22	-0.026649	-0.196004	0	7.19764e-05
1860.22	-0.0276609	-0.196004	0	3.37954e-05
1860.22	-0.0290736	-0.196001	0	-2.34761e-05
1860.22	-0.03062	-0.195998	0	5.28859e-05
1860.22	-0.0318227	-0.195998	0	0.000110157
1860.22	-0.0328536	-0.196002	0	0.000110157
1860.22	-0.0342091	-0.196001	0	0.000129248
1860.22	-0.03545	-0.196005	0	3.37954e-05
1860.22	-0.0369009	-0.196	0	9.10669e-05
1860.22	-0.0380655	-0.196005	0	-4.38561e-06
1860.22	-0.0393637	-0.196004	0	7.19764e-05
1860.22	-0.0406237	-0.195994	0	9.10669e-05
1860.22	-0.0418264	-0.196001	0	1.47049e-05
1860.22	-0.0429528	-0.196005	0	5.28859e-05
1860.22	-0.04427	-0.196004	0	5.28859e-05
1860.22	-0.0454728	-0.195999	0	9.10669e-05
1860.22	-0.0465801	-0.196002	0	3.37954e-05
1860.22	-0.047821	-0.195998	0	0.000148338
1860.23	-0.0491192	-0.196007	0	7.19764e-05
1860.23	-0.0504174	-0.196005	0	-4.38561e-06
1860.23	-0.0514674	-0.196002	0	3.37954e-05
1860.23	-0.0526128	-0.196001	0	0.000110157
1860.23	-0.0536437	-0.196002	0	-2.34761e-05
1860.23	-0.0546746	-0.196004	0	-2.34761e-05
1860.23	-0.0556865	-0.196005	0	9.10669e-05
1860.23	-0.0568128	-0.196005	0	3.37954e-05
1860.23	-0.057901	-0.195999	0	5.28859e-05
1860.23	-0.059161	-0.196	0	-4.38561e-06
1860.23	-0.060612	-0.195999	0	1.47049e-05
1860.23	-0.061891	-0.195997	0	1.47049e-05
1860.23	-0.0629411	-0.195998	0	3.37954e-05
1860.23	-0.0641438	-0.196009	0	0.000110157
1860.23	-0.065232	-0.196002	0	5.28859e-05
1860.24	-0.0665683	-0.196004	0	0.000262881
1860.24	-0.0676756	-0.196012	0	-4.25666e-05
1860.24	-0.0687638	-0.196002	0	7.19764e-05
1860.24	-0.0698902	-0.196002	0	3.37954e-05
1860.24	-0.0711693	-0.196001	0	7.19764e-05
1860.24	-0.0724293	-0.196002	0	1.47049e-05
1860.24	-0.0735175	-0.196	0	1.47049e-05
1860.24	-0.0747775	-0.196005	0	0.000129248
1860.24	-0.0759802	-0.196011	0	0.000110157
1860.24	-0.0770684	-0.196001	0	7.19764e-05
1860.24	-0.0783284	-0.195995	0	5.28859e-05
1860.24	-0.0793593	-0.195999	0	5.28859e-05
1860.25	-0.0806193	-0.196004	0	-4.38561e-06
1860.25	-0.0819366	-0.195994	0	3.37954e-05
1860.25	-0.0830248	-0.196003	0	0.000129248
1860.25	-0.0840748	-0.195996	0	7.19764e-05
1860.25	-0.0852394	-0.196	0	7.19764e-05
1860.25	-0.0865757	-0.196002	0	-4.38561e-06
1860.25	-0.0875876	-0.196002	0	-2.34761e-05
1860.25	-0.0888476	-0.195999	0	3.37954e-05
1860.25	-0.0902221	-0.195996	0	0.000129248
1860.25	-0.0913676	-0.196002	0	-4.25666e-05
1860.25	-0.0924176	-0.195999	0	-4.38561e-06
1860.26	-0.0937158	-0.196001	0	-4.25666e-05
1860.26	-0.095033	-0.196004	0	-4.25666e-05
1860.26	-0.0961021	-0.196001	0	9.10669e-05
1860.26	-0.097534	-0.196001	0	-8.07476e-05
1860.26	-0.0985649	-0.195999	0	-2.34761e-05
1860.26	-0.0995958	-0.196007	0	-2.34761e-05
1860.26	-0.100646	-0.196004	0	-6.16571e-05
1860.26	-0.101849	-0.196007	0	0.000148338
1860.26	-0.103109	-0.196003	0	-2.34761e-05
1860.26	-0.104197	-0.196	0	0.000129248
1860.27	-0.105514	-0.195999	0	-4.38561e-06
1860.27	-0.106526	-0.196009	0	0.000186519
1860.27	-0.107729	-0.196002	0	1.47049e-05
1860.27	-0.108836	-0.196007	0	0.000148338
1860.27	-0.110039	-0.196003	0	-0.000118929
1860.27	-0.111089	-0.196006	0	0.000110157
1860.27	-0.112349	-0.195998	0	5.28859e-05
1860.27	-0.11336	-0.195998	0	-2.34761e-05
1860.27	-0.114391	-0.196004	0	1.47049e-05
1860.27	-0.11548	-0.196002	0	-6.16571e-05
1860.28	-0.116587	-0.195997	0	3.37954e-05
1860.28	-0.117713	-0.195995	0	0.000186519
1860.28	-0.118859	-0.196001	0	9.10669e-05
1860.28	-0.120004	-0.195999	0	1.47049e-05
1860.28	-0.121188	-0.196001	0	5.28859e-05
1860.28	-0.122429	-0.196004	0	3.37954e-05
1860.28	-0.123498	-0.196002	0	5.28859e-05
1860.28	-0.124586	-0.196004	0	1.47049e-05
1860.29	-0.125712	-0.196003	0	7.19764e-05
1860.29	-0.12682	-0.196004	0	-4.38561e-06
1860.29	-0.127908	-0.196005	0	0.000186519
1860.29	-0.129015	-0.196	0	-6.16571e-05
1860.29	-0.130027	-0.196	0	-4.38561e-06
1860.29	-0.131172	-0.195995	0	7.19764e-05
1860.29	-0.132184	-0.196005	0	-2.34761e-05
1860.29	-0.133196	-0.196002	0	-2.34761e-05
1860.3	-0.134265	-0.195997	0	7.19764e-05
1860.3	-0.135582	-0.196002	0	3.37954e-05
1860.3	-0.136594	-0.196004	0	-2.34761e-05
1860.3	-0.137721	-0.196002	0	0.000129248
1860.3	-0.138751	-0.196005	0	0.000110157
1860.3	-0.139763	-0.196002	0	-4.38561e-06
1860.3	-0.140775	-0.195995	0	3.37954e-05
1860.31	-0.14194	-0.196002	0	0.000167429
1860.31	-0.142951	-0.196004	0	-2.34761e-05
1860.31	-0.14404	-0.195998	0	9.10669e-05
1860.31	-0.145128	-0.196003	0	-9.98381e-05
1860.31	-0.14614	-0.196004	0	1.47049e-05
1860.31	-0.147209	-0.196004	0	1.47049e-05
1860.31	-0.148221	-0.196006	0	3.37954e-05
1860.32	-0.149328	-0.196001	0	7.19764e-05
1860.32	-0.150397	-0.196	0	1.47049e-05
1860.32	-0.151581	-0.196	0	1.47049e-05
1860.32	-0.152592	-0.196004	0	9.10669e-05
1860.32	-0.153681	-0.196002	0	-4.38561e-06
1860.32	-0.154692	-0.196006	0	9.10669e-05
1860.33	-0.155742	-0.195997	0	0.000110157
1860.33	-0.156831	-0.196	0	-4.38561e-06
1860.33	-0.157976	-0.196002	0	1.47049e-05
1860.33	-0.159122	-0.196008	0	7.19764e-05
1860.33	-0.160152	-0.196008	0	0.000110157
1860.34	-0.16126	-0.196005	0	-2.34761e-05
1860.34	-0.16252	-0.196003	0	3.37954e-05
1860.34	-0.163532	-0.196002	0	1.47049e-05
1860.34	-0.164543	-0.195999	0	0.000129248
1860.34	-0.165746	-0.196	0	0.000129248
1860.35	-0.166815	-0.196	0	0.000129248
1860.35	-0.167846	-0.196	0	1.47049e-05
1860.35	-0.168934	-0.195998	0	9.10669e-05
1860.35	-0.170023	-0.196006	0	-2.34761e-05
1860.36	-0.17113	-0.196	0	0.000110157
1860.36	-0.17218	-0.195996	0	1.47049e-05
1860.36	-0.173249	-0.196001	0	-6.16571e-05
1860.37	-0.174261	-0.196012	0	9.10669e-05
1860.37	-0.175368	-0.196005	0	9.10669e-05
1860.39	-0.174337	-0.196008	0	0.000167429
1860.4	-0.173325	-0.195999	0	0.000129248
1860.4	-0.172256	-0.196005	0	1.47049e-05
1860.41	-0.171168	-0.195999	0	-2.34761e-05
1860.41	-0.17008	-0.195998	0	5.28859e-05
1860.41	-0.169068	-0.195999	0	5.28859e-05
1860.42	-0.168056	-0.196	0	-4.38561e-06
1860.42	-0.167025	-0.196006	0	1.47049e-05
1860.42	-0.166013	-0.196	0	0.000129248
1860.42	-0.164792	-0.196004	0	0.000110157
1860.43	-0.163646	-0.195997	0	0.000129248
1860.43	-0.16252	-0.196004	0	7.19764e-05
1860.43	-0.161508	-0.196007	0	9.10669e-05
1860.44	-0.160496	-0.196001	0	7.19764e-05
1860.44	-0.159446	-0.196	0	1.47049e-05
1860.44	-0.158415	-0.196	0	7.19764e-05
1860.44	-0.157327	-0.196006	0	0.000110157
1860.45	-0.156315	-0.196008	0	3.37954e-05
1860.45	-0.155303	-0.196005	0	-2.34761e-05
1860.45	-0.154253	-0.196007	0	9.10669e-05
1860.45	-0.153203	-0.195999	0	5.28859e-05
1860.46	-0.152172	-0.196004	0	-9.98381e-05
1860.46	-0.151065	-0.196002	0	5.28859e-05
1860.46	-0.150015	-0.195994	0	0.000148338
1860.47	-0.148984	-0.196002	0	3.37954e-05
1860.47	-0.147934	-0.196004	0	0.000129248
1860.47	-0.146789	-0.196002	0	7.19764e-05
1860.48	-0.145739	-0.195999	0	7.19764e-05
1860.48	-0.144689	-0.195998	0	5.28859e-05
1860.48	-0.143677	-0.196004	0	9.10669e-05
1860.49	-0.142608	-0.196	0	5.28859e-05
1860.49	-0.141539	-0.196002	0	5.28859e-05
1860.5	-0.140412	-0.196	0	0.000110157
1860.5	-0.139381	-0.196002	0	-6.16571e-05
1860.51	-0.138331	-0.196002	0	0.000167429
1860.51	-0.137301	-0.196007	0	5.28859e-05
1860.51	-0.136212	-0.196	0	-4.38561e-06
1860.52	-0.135029	-0.196	0	9.10669e-05
1860.53	-0.133998	-0.196001	0	-4.25666e-05
1860.53	-0.132986	-0.195998	0	0.000243791
1860.54	-0.131898	-0.195998	0	3.37954e-05
1860.54	-0.130771	-0.196004	0	0.000129248
1860.55	-0.129569	-0.195995	0	-6.16571e-05
1860.56	-0.128481	-0.195998	0	0.000110157
1860.57	-0.127469	-0.196005	0	5.28859e-05
1860.58	-0.126438	-0.196002	0	-6.16571e-05
1860.59	-0.125407	-0.195997	0	0.000148338
1860.59	-0.124395	-0.196007	0	7.19764e-05
1860.61	-0.123383	-0.196002	0	3.37954e-05
1860.62	-0.122333	-0.196001	0	7.19764e-05
1860.63	-0.121302	-0.195995	0	5.28859e-05
1860.64	-0.120252	-0.196001	0	0.000110157
1860.66	-0.119221	-0.196002	0	3.37954e-05
1860.68	-0.11821	-0.196008	0	1.47049e-05
1860.7	-0.117179	-0.196002	0	3.37954e-05
1860.72	-0.116167	-0.196004	0	-4.38561e-06
1860.74	-0.115117	-0.195997	0	0.000186519
1860.78	-0.114086	-0.195997	0	-4.38561e-06
1860.81	-0.113074	-0.195998	0	3.37954e-05
1860.85	-0.112062	-0.196005	0	-6.16571e-05
1860.91	-0.11105	-0.196002	0	7.19764e-05
1860.99	-0.11002	-0.196	0	0.000110157
1861.08	-0.108989	-0.196003	0	0.00020561
1861.23	-0.107977	-0.196004	0	3.37954e-05
1861.46	-0.106965	-0.195998	0	-8.07476e-05
1861.95	-0.105953	-0.196004	0	9.10669e-05
1863.81	-0.105629	-0.196002	0	5.28859e-05

File: 2024-06-19_S08_Icell_t1800_C0010_J01_02_MB_C10.txt
time/s	Ewe/V	I/mA	error	Ece/V
60.053	2.85489	-0.0250155	0	-0.00123446
60.1436	0.00870693	-5.76313	0	3.37954e-05
60.1444	0.00851602	-5.64294	0	9.10669e-05
60.1452	0.0085542	-5.52773	0	7.19764e-05
60.146	0.00872602	-5.41869	0	1.47049e-05
60.1468	0.00864965	-5.31559	0	-2.34761e-05
60.1478	0.00866874	-5.19171	0	5.28859e-05
60.149	0.00868784	-5.05457	0	-4.38561e-06
60.1502	0.00863056	-4.92508	0	-8.07476e-05
60.1514	0.00863056	-4.80471	0	0.000148338
60.1526	0.00870693	-4.69147	0	1.47049e-05
60.1538	0.00874511	-4.58486	0	-4.25666e-05
60.1552	0.00864965	-4.46837	0	7.19764e-05
60.1568	0.00863056	-4.34379	0	5.28859e-05
60.1584	0.00868784	-4.22997	0	-6.16571e-05
60.16	0.00870693	-4.12145	0	-6.16571e-05
60.162	0.00859238	-3.99852	0	-2.34761e-05
60.164	0.0087642	-3.88388	0	0.000129248
60.166	0.00863056	-3.77733	0	7.19764e-05
60.1682	0.00859238	-3.66817	0	9.10669e-05
60.1706	0.00868784	-3.55819	0	-2.34761e-05
60.1732	0.00861147	-3.44858	0	-8.07476e-05
60.176	0.00868784	-3.33853	0	-4.25666e-05
60.1788	0.00870693	-3.23746	0	-4.38561e-06
60.182	0.00863056	-3.12938	0	0.000129248
60.1854	0.00864965	-3.0236	0	-2.34761e-05
60.1892	0.00863056	-2.91508	0	7.19764e-05
60.1932	0.00864965	-2.80872	0	-4.38561e-06
60.1976	0.00872602	-2.70102	0	3.37954e-05
60.2022	0.00861147	-2.59785	0	0.000129248
60.2072	0.00864965	-2.49354	0	5.28859e-05
60.2126	0.00863056	-2.39017	0	5.28859e-05
60.2184	0.00864965	-2.28726	0	1.47049e-05
60.2246	0.00863056	-2.18696	0	-8.07476e-05
60.2316	0.0085542	-2.08187	0	0.00020561
60.2392	0.00872602	-1.97838	0	-4.25666e-05
60.2474	0.00868784	-1.87719	0	1.47049e-05
60.2566	0.00866874	-1.77319	0	-4.38561e-06
60.2668	0.00872602	-1.67085	0	-4.25666e-05
60.2782	0.00866874	-1.56755	0	-2.34761e-05
60.291	0.00864965	-1.4661	0	-4.25666e-05
60.3052	0.00859238	-1.36478	0	5.28859e-05
60.3214	0.00868784	-1.26352	0	1.47049e-05
60.3402	0.00864965	-1.16201	0	5.28859e-05
60.362	0.00863056	-1.06107	0	1.47049e-05
60.388	0.00868784	-0.959935	0	1.47049e-05
60.4192	0.00859238	-0.858357	0	5.28859e-05
60.4584	0.00870693	-0.7578	0	-4.38561e-06
60.5076	0.00857329	-0.656987	0	9.10669e-05
60.5746	0.00857329	-0.554773	0	0.000110157
60.6676	0.00870693	-0.454597	0	5.28859e-05
60.8178	0.00874511	-0.354026	0	-4.25666e-05
61.0712	0.00874511	-0.253664	0	-6.16571e-05
61.6292	0.00872602	-0.153583	0	-6.16571e-05
64.1986	0.00868784	-0.0535264	0	-6.16571e-05
84.1986	0.00868784	-0.00940177	0	3.37954e-05
104.199	0.00872602	-0.00498298	0	3.37954e-05
124.199	0.00868784	-0.00333758	0	-6.16571e-05
144.199	0.00874511	-0.00252238	0	0.000110157
164.199	0.00863056	-0.00201777	0	7.19764e-05
184.199	0.00874511	-0.00173335	0	1.47049e-05
204.199	0.00866874	-0.00150774	0	3.37954e-05
224.199	0.0087642	-0.00134354	0	5.28859e-05
244.199	0.00864965	-0.00120785	0	3.37954e-05
264.199	0.00868784	-0.00111964	0	-4.25666e-05
284.199	0.00863056	-0.0010196	0	-2.34761e-05
304.199	0.00878329	-0.000919553	0	-2.34761e-05
324.199	0.00874511	-0.000861447	0	-4.38561e-06
344.199	0.00868784	-0.000800605	0	-4.38561e-06
364.199	0.00870693	-0.00076522	0	-6.16571e-05
384.199	0.00868784	-0.000721561	0	-4.25666e-05
404.199	0.00874511	-0.000650155	0	1.47049e-05
424.199	0.0087642	-0.000635644	0	-6.16571e-05
444.199	0.00874511	-0.000659383	0	-0.000118929
464.199	0.00874511	-0.000574102	0	0.000129248
484.199	0.00866874	-0.000552018	0	1.47049e-05
504.199	0.00882147	-0.000514915	0	5.28859e-05
524.199	0.00870693	-0.000499895	0	5.28859e-05
544.199	0.00864965	-0.000452482	0	0.000148338
564.199	0.00880238	-0.000483285	0	9.10669e-05
584.199	0.00866874	-0.000455982	0	5.28859e-05
604.199	0.00863056	-0.000465847	0	7.19764e-05
624.199	0.00868784	-0.000431734	0	-9.98381e-05
644.199	0.0087642	-0.000444654	0	-4.38561e-06
664.199	0.00872602	-0.000417924	0	-6.16571e-05
684.199	0.00878329	-0.000396731	0	9.10669e-05
704.199	0.0087642	-0.000391194	0	3.37954e-05
724.199	0.00870693	-0.000398513	0	7.19764e-05
744.199	0.00874511	-0.000403159	0	9.10669e-05
764.199	0.00866874	-0.000330416	0	5.28859e-05
784.199	0.00872602	-0.00036701	0	0.000167429
804.199	0.00868784	-0.000318705	0	-2.34761e-05
824.199	0.00866874	-0.000329716	0	1.47049e-05
844.199	0.00866874	-0.000337607	0	-2.34761e-05
864.199	0.00863056	-0.000315842	0	-4.25666e-05
884.199	0.00868784	-0.000327743	0	7.19764e-05
904.199	0.00864965	-0.000309286	0	-2.34761e-05
924.199	0.00872602	-0.000301586	0	-4.25666e-05
944.199	0.00870693	-0.000288539	0	1.47049e-05
964.199	0.00864965	-0.000294394	0	9.10669e-05
984.199	0.00868784	-0.00025519	0	-4.25666e-05
1004.2	0.00868784	-0.000267601	0	9.10669e-05
1024.2	0.00868784	-0.000247044	0	1.47049e-05
1044.2	0.00872602	-0.000270974	0	1.47049e-05
1064.2	0.00866874	-0.000291848	0	1.47049e-05
1084.2	0.00872602	-0.000275492	0	-4.38561e-06
1104.2	0.00870693	-0.000259073	0	5.28859e-05
1124.2	0.00872602	-0.000281602	0	-8.07476e-05
1144.2	0.00866874	-0.000248126	0	5.28859e-05
1164.2	0.00866874	-0.000256463	0	0.000148338
1184.2	0.00863056	-0.000264419	0	7.19764e-05
1204.2	0.00874511	-0.000256781	0	-9.98381e-05
1224.2	0.00872602	-0.000274156	0	-4.38561e-06
1244.2	0.00866874	-0.000323288	0	-4.38561e-06
1264.2	0.00866874	-0.00024609	0	1.47049e-05
1284.2	0.00868784	-0.000247362	0	1.47049e-05
1304.2	0.00868784	-0.000235334	0	7.19764e-05
1324.2	0.00870693	-0.000242016	0	3.37954e-05
1344.2	0.00870693	-0.000199694	0	0.000129248
1364.2	0.00868784	-0.000207331	0	-4.25666e-05
1384.2	0.00861147	-0.000224133	0	3.37954e-05
1404.2	0.00874511	-0.000219742	0	5.28859e-05
1424.2	0.00870693	-0.000170291	0	3.37954e-05
1444.2	0.00870693	-0.000275301	0	5.28859e-05
1464.2	0.00870693	-0.000223878	0	7.19764e-05
1484.2	0.00870693	-0.000190212	0	5.28859e-05
1504.2	0.00872602	-0.000255763	0	5.28859e-05
1524.2	0.00868784	-0.000226424	0	7.19764e-05
1544.2	0.00868784	-0.000192248	0	-4.25666e-05
1564.2	0.00868784	-0.000385403	0	1.47049e-05
1584.2	0.00872602	-0.000217832	0	-6.16571e-05
1604.2	0.00870693	-0.000202176	0	-8.07476e-05
1624.2	0.00868784	-0.000184038	0	-2.34761e-05
1644.2	0.00870693	-0.00018442	0	-2.34761e-05
1664.2	0.0087642	-0.000210386	0	-2.34761e-05
1684.2	0.00866874	-0.00018512	0	1.47049e-05
1704.2	0.00866874	-0.000172901	0	3.37954e-05
1724.2	0.00864965	-0.00019874	0	0.000110157
1744.2	0.00880238	-0.000204658	0	-6.16571e-05
1764.2	0.00861147	-0.000187411	0	0.000148338
1784.2	0.00872602	-0.000145726	0	-4.38561e-06
1804.2	0.00872602	-0.000150753	0	-2.34761e-05
1824.2	0.00872602	-0.000199567	0	9.10669e-05
1844.2	0.00864965	-0.000177992	0	1.47049e-05
1860.05	0.00872602	-0.000209877	0	-2.34761e-05

File: 2024-06-19_S08_Icell_t1800_C0010_J01_04_CP_C10.txt
time/s	Ewe/V	I/mA	error	Ece/V
1860.21	-0.00610241	-0.194742	0	-0.000993925
1860.21	-0.0139153	-0.196	0	3.37954e-05
1860.21	-0.016989	-0.196	0	7.19764e-05
1860.21	-0.0196808	-0.196	0	-4.38561e-06
1860.21	-0.0222772	-0.196002	0	7.19764e-05
1860.21	-0.0248927	-0.195997	0	-4.38561e-06
1860.21	-0.0294172	-0.195997	0	0.000110157
1860.21	-0.0318227	-0.196003	0	0.00020561
1860.21	-0.03503	-0.195995	0	0.000129248
1860.21	-0.0393064	-0.196004	0	-2.34761e-05
1860.21	-0.0423228	-0.19599	0	7.19764e-05
1860.21	-0.0453391	-0.195996	0	-4.25666e-05
1860.21	-0.0490428	-0.196001	0	-2.34761e-05
1860.21	-0.0529183	-0.195998	0	7.19764e-05
1860.21	-0.0556674	-0.196	0	1.47049e-05
1860.21	-0.0591419	-0.196	0	1.47049e-05
1860.22	-0.0625211	-0.196007	0	7.19764e-05
1860.22	-0.0659574	-0.195997	0	5.28859e-05
1860.22	-0.0691265	-0.196	0	5.28859e-05
1860.22	-0.0724102	-0.196002	0	5.28859e-05
1860.22	-0.075522	-0.195997	0	1.47049e-05
1860.22	-0.0784811	-0.195991	0	-4.38561e-06
1860.22	-0.0815357	-0.196004	0	1.47049e-05
1860.22	-0.0844375	-0.195995	0	0.000186519
1860.22	-0.0871103	-0.196	0	9.10669e-05
1860.22	-0.0900312	-0.196004	0	7.19764e-05
1860.22	-0.0925894	-0.195997	0	-4.25666e-05
1860.22	-0.0952621	-0.196002	0	0.000167429
1860.22	-0.097744	-0.196003	0	5.28859e-05
1860.23	-0.100417	-0.195999	0	0.000148338
1860.23	-0.102803	-0.196002	0	5.28859e-05
1860.23	-0.105228	-0.196003	0	0.000110157
1860.23	-0.107404	-0.196	0	-4.25666e-05
1860.23	-0.109752	-0.196004	0	1.47049e-05
1860.23	-0.112119	-0.196002	0	-4.38561e-06
1860.23	-0.114277	-0.196004	0	0.000110157
1860.23	-0.116892	-0.195999	0	7.19764e-05
1860.23	-0.118954	-0.195999	0	1.47049e-05
1860.23	-0.121608	-0.195995	0	-4.25666e-05
1860.23	-0.124414	-0.196004	0	3.37954e-05
1860.24	-0.12701	-0.196012	0	9.10669e-05
1860.24	-0.129588	-0.196004	0	-4.38561e-06
1860.24	-0.132394	-0.196001	0	5.28859e-05
1860.24	-0.135143	-0.196005	0	-8.07476e-05
1860.24	-0.137453	-0.196006	0	1.47049e-05
1860.24	-0.139954	-0.196006	0	7.19764e-05
1860.24	-0.142436	-0.196003	0	1.47049e-05
1860.24	-0.144593	-0.196001	0	-4.38561e-06
1860.25	-0.14698	-0.196004	0	1.47049e-05
1860.25	-0.149442	-0.196	0	0.000129248
1860.25	-0.151943	-0.196003	0	-8.07476e-05
1860.25	-0.15433	-0.196001	0	1.47049e-05
1860.25	-0.156754	-0.196003	0	5.28859e-05
1860.25	-0.158969	-0.195999	0	-6.16571e-05
1860.25	-0.161241	-0.195999	0	-4.25666e-05
1860.26	-0.163703	-0.196002	0	-6.16571e-05
1860.26	-0.165861	-0.196004	0	5.28859e-05
1860.26	-0.168171	-0.196005	0	0.000129248
1860.26	-0.170443	-0.196003	0	3.37954e-05
1860.26	-0.172676	-0.196005	0	3.37954e-05
1860.26	-0.17491	-0.196005	0	0.000148338
1860.27	-0.177315	-0.195997	0	-4.38561e-06
1860.27	-0.179721	-0.196002	0	1.47049e-05
1860.27	-0.182088	-0.195998	0	5.28859e-05
1860.27	-0.184379	-0.196004	0	5.28859e-05
1860.28	-0.186555	-0.196004	0	-4.25666e-05
1860.29	-0.184494	-0.196005	0	3.37954e-05
1860.29	-0.182394	-0.196	0	-2.34761e-05
1860.29	-0.179835	-0.196	0	7.19764e-05
1860.3	-0.177525	-0.196	0	3.37954e-05
1860.3	-0.175273	-0.196002	0	1.47049e-05
1860.3	-0.17302	-0.196003	0	-4.25666e-05
1860.3	-0.1705	-0.196005	0	3.37954e-05
1860.3	-0.168304	-0.195999	0	7.19764e-05
1860.3	-0.165975	-0.195997	0	-8.07476e-05
1860.3	-0.163837	-0.196001	0	-4.38561e-06
1860.3	-0.161355	-0.196004	0	-4.38561e-06
1860.31	-0.158988	-0.195998	0	7.19764e-05
1860.31	-0.156602	-0.196	0	9.10669e-05
1860.31	-0.154082	-0.195995	0	3.37954e-05
1860.31	-0.151905	-0.196002	0	5.28859e-05
1860.31	-0.149538	-0.196005	0	0.000167429
1860.31	-0.147132	-0.196005	0	0.000129248
1860.31	-0.144899	-0.196006	0	1.47049e-05
1860.31	-0.142684	-0.195998	0	-9.98381e-05
1860.32	-0.140202	-0.196	0	-4.25666e-05
1860.32	-0.137663	-0.196002	0	-2.34761e-05
1860.32	-0.135048	-0.196004	0	7.19764e-05
1860.32	-0.132585	-0.196002	0	0.000129248
1860.32	-0.130256	-0.196001	0	-4.25666e-05
1860.32	-0.127812	-0.196003	0	5.28859e-05
1860.32	-0.12556	-0.196	0	5.28859e-05
1860.33	-0.122963	-0.196	0	9.10669e-05
1860.33	-0.120577	-0.196	0	1.47049e-05
1860.33	-0.118267	-0.196003	0	5.28859e-05
1860.33	-0.116071	-0.196004	0	0.000110157
1860.34	-0.113876	-0.196002	0	-4.38561e-06
1860.34	-0.111833	-0.196002	0	1.47049e-05
1860.34	-0.109657	-0.196002	0	0.0002247
1860.34	-0.107538	-0.196002	0	-4.38561e-06
1860.35	-0.10538	-0.196002	0	7.19764e-05
1860.35	-0.103223	-0.196004	0	9.10669e-05
1860.36	-0.101047	-0.196003	0	7.19764e-05
1860.36	-0.0989085	-0.196005	0	0.000148338
1860.37	-0.0968849	-0.196005	0	5.28859e-05
1860.38	-0.0947467	-0.196005	0	1.47049e-05
1860.39	-0.0926658	-0.19601	0	3.37954e-05
1860.4	-0.0905657	-0.196001	0	0.000110157
1860.43	-0.0885039	-0.196002	0	9.10669e-05
1860.46	-0.0864612	-0.196006	0	5.28859e-05
1860.52	-0.0844184	-0.196008	0	7.19764e-05
1860.65	-0.0823757	-0.196002	0	3.37954e-05
1862.79	-0.0843994	-0.196002	0	-4.25666e-05
1864.25	-0.086423	-0.196006	0	-6.16571e-05
1865.8	-0.0884657	-0.196002	0	-4.25666e-05
1867.82	-0.0905085	-0.196004	0	1.47049e-05
1870	-0.0926276	-0.196	0	3.37954e-05
1872.7	-0.0946703	-0.196004	0	3.37954e-05
1875.95	-0.0967703	-0.196004	0	-4.38561e-06
1880.47	-0.098794	-0.196007	0	1.47049e-05
1884.58	-0.100856	-0.196002	0	-6.16571e-05
1892.13	-0.102899	-0.196002	0	7.19764e-05
1896.21	-0.103395	-0.196002	0	9.10669e-05