Folder: SUMMER-JOB-2024-MATERIALS-PHYSICS/EXPERIMENTAL-DATA/Electrochemical-cycling/S-series (part 5)

File: 2024-06-27_S18_Icell_t1800_C0010_J01_deltaX-110,1mm_04_CP_C05.txt
time/s	Ewe/V	I/mA	error	Ece/V
1860.21	0.00260218	-0.194684	0	-0.000797318
1860.21	-0.00162386	-0.195982	0	-7.67139e-06
1860.21	-0.00456374	-0.195984	0	-2.6759e-05
1860.21	-0.00708363	-0.195984	0	-7.67139e-06
1860.21	-0.00925991	-0.19598	0	6.86792e-05
1860.21	-0.0115889	-0.195977	0	-4.58467e-05
1860.21	-0.0141088	-0.195978	0	-2.6759e-05
1860.21	-0.0162278	-0.195985	0	3.05039e-05
1860.21	-0.0190532	-0.195983	0	6.86792e-05
1860.21	-0.0214776	-0.195981	0	-2.6759e-05
1860.21	-0.0242838	-0.195981	0	-4.58467e-05
1860.22	-0.0268801	-0.195984	0	-6.49344e-05
1860.22	-0.0291518	-0.195984	0	-0.000122197
1860.22	-0.0315763	-0.195989	0	0.000106855
1860.22	-0.0341344	-0.195982	0	-7.67139e-06
1860.22	-0.0365206	-0.195987	0	-2.6759e-05
1860.22	-0.038926	-0.195981	0	3.05039e-05
1860.22	-0.0410832	-0.195982	0	1.14163e-05
1860.22	-0.043584	-0.195978	0	1.14163e-05
1860.23	-0.045703	-0.195984	0	0.000106855
1860.23	-0.0479556	-0.195988	0	-6.49344e-05
1860.23	-0.050361	-0.195984	0	-0.00010311
1860.23	-0.0527854	-0.195984	0	-4.58467e-05
1860.23	-0.0549044	-0.195981	0	3.05039e-05
1860.23	-0.0571952	-0.195983	0	3.05039e-05
1860.23	-0.0596197	-0.195981	0	-2.6759e-05
1860.23	-0.0622541	-0.195982	0	-2.6759e-05
1860.24	-0.0646595	-0.195986	0	6.86792e-05
1860.24	-0.0668739	-0.195982	0	4.95916e-05
1860.24	-0.0691457	-0.195982	0	0.000164117
1860.24	-0.0714556	-0.19598	0	1.14163e-05
1860.24	-0.0739564	-0.195978	0	1.14163e-05
1860.24	-0.0766481	-0.195979	0	6.86792e-05
1860.25	-0.0788244	-0.195984	0	1.14163e-05
1860.25	-0.0810579	-0.195985	0	-4.58467e-05
1860.25	-0.0833296	-0.195983	0	-8.4022e-05
1860.25	-0.0853723	-0.195985	0	-6.49344e-05
1860.25	-0.0877013	-0.195979	0	3.05039e-05
1860.25	-0.0897821	-0.195984	0	1.14163e-05
1860.26	-0.0922066	-0.195983	0	0.000106855
1860.26	-0.0944401	-0.19598	0	6.86792e-05
1860.26	-0.0966546	-0.195982	0	6.86792e-05
1860.26	-0.0988499	-0.195982	0	1.14163e-05
1860.27	-0.101274	-0.195978	0	6.86792e-05
1860.27	-0.103584	-0.195984	0	4.95916e-05
1860.27	-0.105684	-0.195987	0	-4.58467e-05
1860.27	-0.10788	-0.195983	0	4.95916e-05
1860.27	-0.110266	-0.195984	0	1.14163e-05
1860.28	-0.112366	-0.195983	0	0.000106855
1860.28	-0.114504	-0.195983	0	-0.00010311
1860.28	-0.11668	-0.195987	0	4.95916e-05
1860.28	-0.119047	-0.195985	0	-2.6759e-05
1860.29	-0.121166	-0.195986	0	1.14163e-05
1860.29	-0.123476	-0.19598	0	-4.58467e-05
1860.29	-0.125729	-0.195982	0	3.05039e-05
1860.3	-0.127771	-0.195981	0	1.14163e-05
1860.3	-0.130081	-0.195978	0	-6.49344e-05
1860.3	-0.132258	-0.195985	0	-4.58467e-05
1860.31	-0.134358	-0.195988	0	6.86792e-05
1860.31	-0.136438	-0.195985	0	-7.67139e-06
1860.32	-0.138634	-0.195984	0	8.77669e-05
1860.32	-0.140867	-0.195984	0	-2.6759e-05
1860.33	-0.143024	-0.195986	0	1.14163e-05
1860.33	-0.145163	-0.195989	0	6.86792e-05
1860.34	-0.147434	-0.195989	0	-8.4022e-05
1860.34	-0.149458	-0.195979	0	-7.67139e-06
1860.35	-0.15152	-0.195987	0	-4.58467e-05
1860.36	-0.153753	-0.195985	0	6.86792e-05
1860.36	-0.155853	-0.19598	0	-2.6759e-05
1860.37	-0.157972	-0.195978	0	-2.6759e-05
1860.39	-0.160072	-0.195989	0	1.14163e-05
1860.42	-0.157934	-0.195985	0	-7.67139e-06
1860.42	-0.155739	-0.195987	0	-6.49344e-05
1860.43	-0.1536	-0.195982	0	-8.4022e-05
1860.43	-0.151329	-0.195986	0	1.14163e-05
1860.44	-0.14921	-0.195991	0	-4.58467e-05
1860.44	-0.147033	-0.195982	0	-4.58467e-05
1860.44	-0.144991	-0.195987	0	3.05039e-05
1860.45	-0.142624	-0.195985	0	3.05039e-05
1860.45	-0.140486	-0.195982	0	0.000106855
1860.45	-0.138176	-0.195984	0	0.000106855
1860.46	-0.136152	-0.19598	0	1.14163e-05
1860.46	-0.134052	-0.195981	0	-6.49344e-05
1860.46	-0.131914	-0.195978	0	-8.4022e-05
1860.47	-0.129623	-0.195982	0	1.14163e-05
1860.47	-0.12739	-0.195982	0	-4.58467e-05
1860.47	-0.12508	-0.195986	0	-7.67139e-06
1860.48	-0.122808	-0.195986	0	4.95916e-05
1860.48	-0.120689	-0.195982	0	0.000164117
1860.48	-0.118475	-0.195983	0	0.000106855
1860.49	-0.116184	-0.195984	0	3.05039e-05
1860.49	-0.113969	-0.195985	0	-4.58467e-05
1860.49	-0.111659	-0.195982	0	0.000125942
1860.5	-0.109617	-0.195985	0	-7.67139e-06
1860.5	-0.107307	-0.195984	0	-2.6759e-05
1860.51	-0.105054	-0.195983	0	1.14163e-05
1860.51	-0.102859	-0.195979	0	1.14163e-05
1860.52	-0.100721	-0.195987	0	0.000106855
1860.52	-0.0986018	-0.195985	0	-6.49344e-05
1860.53	-0.0964255	-0.195984	0	-2.6759e-05
1860.53	-0.0941156	-0.195984	0	1.14163e-05
1860.54	-0.0919393	-0.195986	0	-2.6759e-05
1860.55	-0.0898012	-0.195986	0	-4.58467e-05
1860.56	-0.0877585	-0.19598	0	-2.6759e-05
1860.57	-0.0856205	-0.195984	0	1.14163e-05
1860.58	-0.0834824	-0.19598	0	-7.67139e-06
1860.6	-0.0814015	-0.19598	0	6.86792e-05
1860.61	-0.079378	-0.195986	0	-4.58467e-05
1860.63	-0.0773544	-0.195982	0	1.14163e-05
1860.66	-0.0752736	-0.195986	0	-2.6759e-05
1860.7	-0.0731928	-0.195982	0	1.14163e-05
1860.75	-0.0711501	-0.195985	0	-2.6759e-05
1860.83	-0.0691075	-0.195985	0	6.86792e-05
1860.97	-0.0669694	-0.195988	0	1.14163e-05
1861.25	-0.0649267	-0.19598	0	-7.67139e-06
1864.74	-0.0649077	-0.195983	0	-2.6759e-05
1867.5	-0.0669503	-0.195985	0	-2.6759e-05
1870.52	-0.0690311	-0.195987	0	3.05039e-05
1873.9	-0.0710738	-0.195979	0	4.95916e-05
1878.23	-0.0730973	-0.195989	0	4.95916e-05
1883.7	-0.07514	-0.195983	0	0.000125942
1891.7	-0.0772208	-0.195988	0	3.05039e-05
1896.21	-0.0777935	-0.195987	0	0.000183205

File: 2024-06-27_S19_Icell_t1800_C0010_J01_deltaX-109,9mm_04_CP_C06.txt
time/s	Ewe/V	I/mA	error	Ece/V
1860.21	0.00257895	-0.194799	0	-0.000236832
1860.21	-0.000307888	-0.195997	0	-0.000477374
1860.21	-0.00158888	-0.196001	0	-1.35045e-05
1860.21	-0.00269621	-0.195998	0	-3.25942e-05
1860.21	-0.00395628	-0.195996	0	6.28543e-05
1860.21	-0.00496815	-0.195993	0	-7.07736e-05
1860.21	-0.00599911	-0.195998	0	-5.16839e-05
1860.21	-0.00703007	-0.195998	0	6.28543e-05
1860.21	-0.00804194	-0.195994	0	6.28543e-05
1860.21	-0.00911109	-0.195991	0	2.46749e-05
1860.21	-0.0102184	-0.19599	0	-1.35045e-05
1860.21	-0.0114594	-0.195993	0	-7.07736e-05
1860.21	-0.0126431	-0.195992	0	-1.35045e-05
1860.21	-0.0137504	-0.196001	0	4.37646e-05
1860.22	-0.0147623	-0.195996	0	-8.98633e-05
1860.22	-0.0159651	-0.195993	0	-7.07736e-05
1860.22	-0.0169769	-0.195997	0	2.46749e-05
1860.22	-0.018027	-0.19599	0	6.28543e-05
1860.22	-0.0190389	-0.195998	0	5.58521e-06
1860.22	-0.0202417	-0.195995	0	4.37646e-05
1860.22	-0.0214826	-0.195994	0	-1.35045e-05
1860.22	-0.0226281	-0.195995	0	0.000196482
1860.22	-0.0238309	-0.195992	0	5.58521e-06
1860.23	-0.0249765	-0.195996	0	2.46749e-05
1860.23	-0.0262556	-0.195997	0	5.58521e-06
1860.23	-0.0273629	-0.195994	0	5.58521e-06
1860.23	-0.0285466	-0.195992	0	-1.35045e-05
1860.23	-0.0295585	-0.195998	0	-7.07736e-05
1860.23	-0.0307422	-0.195997	0	4.37646e-05
1860.23	-0.0317732	-0.195996	0	5.58521e-06
1860.24	-0.0329569	-0.195995	0	4.37646e-05
1860.24	-0.0340833	-0.195998	0	5.58521e-06
1860.24	-0.0352097	-0.195992	0	4.37646e-05
1860.24	-0.0363552	-0.196001	0	8.1944e-05
1860.24	-0.0374626	-0.195999	0	-5.16839e-05
1860.24	-0.0384744	-0.195995	0	6.28543e-05
1860.24	-0.0395627	-0.195993	0	0.000139213
1860.25	-0.04088	-0.195994	0	-0.000147132
1860.25	-0.0419682	-0.195997	0	-3.25942e-05
1860.25	-0.0430565	-0.195996	0	-3.25942e-05
1860.25	-0.0440683	-0.195993	0	8.1944e-05
1860.25	-0.0452711	-0.195993	0	-3.25942e-05
1860.25	-0.046283	-0.195988	0	-5.16839e-05
1860.26	-0.0473712	-0.195997	0	5.58521e-06
1860.26	-0.0485168	-0.195992	0	0.000101034
1860.26	-0.0495477	-0.19599	0	4.37646e-05
1860.26	-0.0508078	-0.195992	0	4.37646e-05
1860.26	-0.0521251	-0.195992	0	0.000101034
1860.26	-0.0531943	-0.195996	0	-0.000147132
1860.27	-0.0542061	-0.195997	0	-1.35045e-05
1860.27	-0.0552371	-0.195993	0	-5.16839e-05
1860.27	-0.0562681	-0.195994	0	-3.25942e-05
1860.27	-0.0572799	-0.195994	0	-0.000204402
1860.27	-0.0583491	-0.195991	0	6.28543e-05
1860.27	-0.059571	-0.195997	0	6.28543e-05
1860.28	-0.0607738	-0.195999	0	0.000101034
1860.28	-0.0618429	-0.195999	0	-0.000147132
1860.28	-0.062912	-0.195997	0	0.000120123
1860.28	-0.0639621	-0.195996	0	-7.07736e-05
1860.28	-0.0650503	-0.195994	0	-5.16839e-05
1860.29	-0.0661386	-0.195994	0	-8.98633e-05
1860.29	-0.0671505	-0.195994	0	6.28543e-05
1860.29	-0.0681623	-0.195997	0	0.000101034
1860.29	-0.0694606	-0.195993	0	-7.07736e-05
1860.29	-0.0706634	-0.195996	0	4.37646e-05
1860.3	-0.0717134	-0.195996	0	-5.16839e-05
1860.3	-0.0729162	-0.195999	0	-0.000128043
1860.3	-0.0739853	-0.196003	0	-3.25942e-05
1860.3	-0.0750163	-0.195995	0	-3.25942e-05
1860.3	-0.0761046	-0.195994	0	-8.98633e-05
1860.31	-0.0771737	-0.195996	0	-5.16839e-05
1860.31	-0.0782619	-0.195992	0	-7.07736e-05
1860.31	-0.0794647	-0.195994	0	6.28543e-05
1860.31	-0.0804766	-0.195993	0	2.46749e-05
1860.31	-0.0815266	-0.196001	0	-3.25942e-05
1860.32	-0.0825767	-0.196001	0	-0.000108953
1860.32	-0.0837413	-0.195997	0	2.46749e-05
1860.32	-0.0848295	-0.195999	0	0.000120123
1860.32	-0.0858414	-0.195995	0	8.1944e-05
1860.33	-0.0869678	-0.195997	0	0.000120123
1860.33	-0.088037	-0.195993	0	-3.25942e-05
1860.33	-0.0890489	-0.195996	0	-5.16839e-05
1860.33	-0.0900989	-0.195997	0	-5.16839e-05
1860.33	-0.091149	-0.195996	0	-8.98633e-05
1860.34	-0.0922181	-0.195995	0	-5.16839e-05
1860.34	-0.0933254	-0.195997	0	2.46749e-05
1860.34	-0.0944137	-0.195996	0	0.000158303
1860.34	-0.0955974	-0.195998	0	6.28543e-05
1860.35	-0.0967811	-0.196002	0	6.28543e-05
1860.35	-0.097812	-0.195997	0	-0.000147132
1860.35	-0.0989575	-0.19599	0	-1.35045e-05
1860.35	-0.100027	-0.195996	0	2.46749e-05
1860.36	-0.101058	-0.195991	0	0.000139213
1860.36	-0.102203	-0.195996	0	2.46749e-05
1860.36	-0.103406	-0.195992	0	6.28543e-05
1860.36	-0.104513	-0.195995	0	-3.25942e-05
1860.37	-0.105621	-0.195996	0	4.37646e-05
1860.37	-0.106785	-0.196001	0	5.58521e-06
1860.37	-0.107835	-0.195996	0	5.58521e-06
1860.38	-0.108943	-0.195999	0	-3.25942e-05
1860.38	-0.110012	-0.195999	0	-0.000147132
1860.38	-0.111138	-0.195999	0	-5.16839e-05
1860.38	-0.112169	-0.195995	0	-5.16839e-05
1860.39	-0.113296	-0.195994	0	0.000101034
1860.39	-0.114327	-0.196	0	-1.35045e-05
1860.39	-0.115377	-0.195997	0	-5.16839e-05
1860.4	-0.116388	-0.195992	0	-1.35045e-05
1860.4	-0.1174	-0.195999	0	-7.07736e-05
1860.4	-0.118469	-0.195993	0	-3.25942e-05
1860.41	-0.1195	-0.195996	0	4.37646e-05
1860.41	-0.12057	-0.195994	0	-7.07736e-05
1860.41	-0.121601	-0.195992	0	-3.25942e-05
1860.42	-0.122612	-0.196	0	-5.16839e-05
1860.42	-0.123739	-0.195995	0	4.37646e-05
1860.42	-0.124808	-0.195993	0	5.58521e-06
1860.43	-0.125858	-0.195995	0	5.58521e-06
1860.43	-0.127004	-0.195996	0	6.28543e-05
1860.43	-0.12813	-0.196	0	-5.16839e-05
1860.44	-0.12918	-0.195992	0	5.58521e-06
1860.44	-0.130192	-0.195996	0	6.28543e-05
1860.44	-0.131356	-0.195997	0	-5.16839e-05
1860.45	-0.132483	-0.195998	0	-7.07736e-05
1860.45	-0.133628	-0.195992	0	2.46749e-05
1860.46	-0.134736	-0.195999	0	-3.25942e-05
1860.46	-0.135786	-0.195996	0	-8.98633e-05
1860.47	-0.136836	-0.195996	0	5.58521e-06
1860.47	-0.137905	-0.195996	0	5.58521e-06
1860.47	-0.138936	-0.195999	0	6.28543e-05
1860.48	-0.139948	-0.195996	0	-1.35045e-05
1860.48	-0.141132	-0.195996	0	8.1944e-05
1860.49	-0.142143	-0.195992	0	5.58521e-06
1860.49	-0.143155	-0.195992	0	0.000101034
1860.5	-0.144167	-0.195993	0	-3.25942e-05
1860.5	-0.145217	-0.195991	0	2.46749e-05
1860.51	-0.146267	-0.195995	0	-3.25942e-05
1860.51	-0.147298	-0.195995	0	-3.25942e-05
1860.52	-0.14831	-0.195994	0	4.37646e-05
1860.53	-0.149437	-0.195999	0	-1.35045e-05
1860.53	-0.150467	-0.195996	0	0.000158303
1860.54	-0.151479	-0.195999	0	-5.16839e-05
1860.55	-0.152491	-0.195999	0	6.28543e-05
1860.55	-0.153522	-0.195997	0	-1.35045e-05
1860.57	-0.154534	-0.195997	0	-3.25942e-05
1860.61	-0.153522	-0.195994	0	-3.25942e-05
1860.62	-0.152491	-0.195997	0	4.37646e-05
1860.63	-0.15146	-0.195994	0	0.000101034
1860.63	-0.150448	-0.195996	0	4.37646e-05
1860.64	-0.149303	-0.196001	0	-5.16839e-05
1860.64	-0.148272	-0.195997	0	-0.000108953
1860.65	-0.147145	-0.195993	0	4.37646e-05
1860.65	-0.146095	-0.195994	0	4.37646e-05
1860.65	-0.145064	-0.195999	0	-8.98633e-05
1860.66	-0.144053	-0.195999	0	5.58521e-06
1860.66	-0.142983	-0.195997	0	-0.000204402
1860.66	-0.141972	-0.195993	0	-1.35045e-05
1860.67	-0.140902	-0.195996	0	4.37646e-05
1860.67	-0.139776	-0.195994	0	-7.07736e-05
1860.68	-0.138726	-0.195997	0	-3.25942e-05
1860.68	-0.137619	-0.195997	0	-3.25942e-05
1860.68	-0.136492	-0.195996	0	-7.07736e-05
1860.69	-0.135347	-0.195999	0	8.1944e-05
1860.69	-0.134316	-0.195994	0	-3.25942e-05
1860.69	-0.133304	-0.195994	0	6.28543e-05
1860.7	-0.132216	-0.196	0	8.1944e-05
1860.7	-0.131185	-0.195998	0	-1.35045e-05
1860.7	-0.130077	-0.196001	0	-5.16839e-05
1860.71	-0.129065	-0.195999	0	-7.07736e-05
1860.71	-0.128015	-0.195997	0	-0.000128043
1860.72	-0.126984	-0.195995	0	5.58521e-06
1860.72	-0.125953	-0.195999	0	-3.25942e-05
1860.72	-0.124903	-0.195996	0	2.46749e-05
1860.73	-0.123777	-0.195995	0	5.58521e-06
1860.73	-0.122765	-0.195989	0	-7.07736e-05
1860.73	-0.12162	-0.195994	0	0.000101034
1860.74	-0.120608	-0.195995	0	-5.16839e-05
1860.74	-0.119596	-0.195994	0	8.1944e-05
1860.75	-0.118584	-0.195994	0	-1.35045e-05
1860.75	-0.117496	-0.195995	0	4.37646e-05
1860.76	-0.116427	-0.195996	0	-1.35045e-05
1860.76	-0.115396	-0.195997	0	-8.98633e-05
1860.77	-0.114269	-0.195991	0	-0.000128043
1860.77	-0.1132	-0.195997	0	-0.000108953
1860.78	-0.11215	-0.195999	0	5.58521e-06
1860.78	-0.111119	-0.196007	0	-7.07736e-05
1860.79	-0.110069	-0.195992	0	2.46749e-05
1860.79	-0.109038	-0.195995	0	-8.98633e-05
1860.8	-0.107969	-0.195995	0	6.28543e-05
1860.8	-0.106881	-0.195996	0	8.1944e-05
1860.81	-0.105754	-0.195999	0	-5.16839e-05
1860.82	-0.104704	-0.195997	0	8.1944e-05
1860.82	-0.103692	-0.195997	0	8.1944e-05
1860.83	-0.102661	-0.195994	0	2.46749e-05
1860.84	-0.10163	-0.195994	0	8.1944e-05
1860.85	-0.100619	-0.195992	0	8.1944e-05
1860.85	-0.0995112	-0.195998	0	-1.35045e-05
1860.86	-0.0984421	-0.195996	0	0.000101034
1860.87	-0.0974302	-0.195997	0	-0.000108953
1860.88	-0.0962274	-0.195998	0	0.000139213
1860.9	-0.0952155	-0.195999	0	-3.25942e-05
1860.91	-0.0941464	-0.195997	0	-5.16839e-05
1860.92	-0.0931154	-0.195997	0	4.37646e-05
1860.93	-0.0920463	-0.195997	0	-8.98633e-05
1860.95	-0.0909962	-0.195999	0	0.000101034
1860.96	-0.0899844	-0.195996	0	-8.98633e-05
1860.98	-0.0889534	-0.195994	0	4.37646e-05
1861	-0.0877506	-0.195994	0	6.28543e-05
1861.02	-0.0867387	-0.195996	0	4.37646e-05
1861.05	-0.0857269	-0.195995	0	-1.35045e-05
1861.08	-0.0846768	-0.195995	0	-0.000128043
1861.11	-0.0836649	-0.195994	0	0.000101034
1861.14	-0.0826531	-0.196001	0	8.1944e-05
1861.19	-0.0816221	-0.195995	0	-8.98633e-05
1861.24	-0.0806102	-0.195999	0	8.1944e-05
1861.3	-0.0795984	-0.195993	0	2.46749e-05
1861.38	-0.0785292	-0.195992	0	-8.98633e-05
1861.49	-0.0775173	-0.195996	0	6.28543e-05
1861.64	-0.0765055	-0.195994	0	-1.35045e-05
1861.84	-0.0754936	-0.195994	0	-5.16839e-05
1862.19	-0.0744626	-0.195996	0	-1.35045e-05
1863.04	-0.0733935	-0.196	0	-8.98633e-05
1866.93	-0.0744436	-0.195996	0	-1.35045e-05
1869.63	-0.0754745	-0.195996	0	-0.000108953
1872.19	-0.0765818	-0.195999	0	4.37646e-05
1874.92	-0.0775937	-0.195997	0	0.000158303
1877.74	-0.0786056	-0.195999	0	0.000158303
1880.72	-0.0796175	-0.195996	0	4.37646e-05
1883.89	-0.0806293	-0.196001	0	-8.98633e-05
1887.52	-0.0816603	-0.195999	0	5.58521e-06
1891.53	-0.0826722	-0.195998	0	-0.000128043
1895.75	-0.0837031	-0.195999	0	-5.16839e-05
1896.21	-0.0835122	-0.195995	0	2.46749e-05

File: 2024-07-02_S24_TPcell_t1800_C0500_J01_newScript_02_CA_C02.txt
time/s	Ewe/V	I/mA	error
60.0484	2.81746	-0.00038972	0
60.2066	0.0486487	-38.4725	0
60.2434	0.0487441	-34.9707	0
60.282	0.0486678	-32.2908	0
60.324	0.048725	-29.9693	0
60.3692	0.0486678	-27.8752	0
60.42	0.0486487	-25.9078	0
60.474	0.0486487	-24.1167	0
60.534	0.0486869	-22.4511	0
60.6004	0.0487441	-20.9007	0
60.6654	0.048706	-19.6228	0
60.7388	0.048725	-18.4086	0
60.819	0.048706	-17.2944	0
60.8974	0.048706	-16.3845	0
60.9838	0.048725	-15.5345	0
61.0742	0.0488205	-14.7673	0
61.1656	0.048706	-14.1108	0
61.2556	0.0486487	-13.5474	0
61.3388	0.048725	-13.0889	0
61.4398	0.048706	-12.5834	0
61.524	0.0487823	-12.2294	0
61.6226	0.0486296	-11.8378	0
61.7178	0.0486678	-11.4978	0
61.825	0.0486105	-11.1616	0
61.9016	0.0486869	-10.935	0
61.9848	0.048706	-10.7153	0
62.0718	0.0486487	-10.5052	0
62.1636	0.048706	-10.2976	0
62.2538	0.0486105	-10.1072	0
62.3438	0.0485723	-9.93723	0
62.4456	0.0486869	-9.75641	0
62.5364	0.0486487	-9.60487	0
62.6302	0.048725	-9.46734	0
62.7172	0.0486678	-9.35656	0
62.8074	0.048725	-9.24068	0
62.9058	0.048706	-9.12097	0
63.0042	0.0486487	-9.02038	0
63.1016	0.0486678	-8.92041	0
63.1892	0.0485914	-8.82873	0
63.297	0.0487441	-8.73322	0
63.383	0.0486869	-8.66955	0
63.4802	0.0486296	-8.60142	0
63.5774	0.0487823	-8.51929	0
63.666	0.0486678	-8.45944	0
63.7622	0.0486869	-8.40086	0
63.8546	0.0487823	-8.34546	0
63.9444	0.0487632	-8.29262	0
64.0374	0.048706	-8.24359	0
64.1312	0.048706	-8.19011	0
64.213	0.0486678	-8.17801	0
64.3002	0.0487441	-8.08633	0
64.3908	0.0486487	-8.03093	0
64.4748	0.0486487	-8.01056	0
64.5638	0.0487441	-7.96344	0
64.6628	0.0486105	-7.90996	0
64.753	0.0487441	-7.86602	0
64.8432	0.0486296	-7.83674	0
64.9302	0.0486296	-7.80044	0
65.0316	0.0486678	-7.77052	0
65.0948	0.0487632	-7.75524	0
65.1796	0.0487823	-7.71449	0
65.278	0.0486678	-7.68265	0
65.37	0.048706	-7.65273	0
65.463	0.0488205	-7.62408	0
65.5516	0.0487441	-7.69093	0
65.6156	0.048725	-7.57951	0
65.6838	0.0486487	-7.65782	0
65.7654	0.048706	-7.54385	0
65.8338	0.0487632	-7.56613	0
65.9164	0.0486487	-7.49355	0
65.9962	0.0487441	-7.47509	0
66.088	0.0486296	-7.68647	0
66.1544	0.0488587	-7.50628	0
66.2214	0.0486678	-7.57505	0
66.2946	0.0486296	-7.71831	0
66.3832	0.0486678	-7.39995	0
66.4632	0.0486678	-7.38531	0
66.5602	0.0487823	-7.37258	0
66.6242	0.0487823	-7.38404	0
66.7028	0.0486105	-7.45789	0
66.769	0.048725	-7.34201	0
66.8402	0.048706	-7.31527	0
66.9306	0.0487632	-7.30127	0
67.0052	0.0486487	-7.47954	0
67.0648	0.0488014	-7.37194	0
67.1398	0.0487441	-7.33628	0
67.1922	0.0486487	-7.48527	0
67.2652	0.0486487	-7.41969	0
67.3164	0.0486678	-7.29299	0
67.3836	0.0486105	-7.321	0
67.443	0.0486296	-7.30381	0
67.534	0.0487441	-7.23632	0
67.6112	0.0486869	-7.54194	0
67.6854	0.0486678	-7.27198	0
67.7672	0.0486869	-7.19111	0
67.8386	0.048706	-7.19175	0
67.9048	0.0485723	-7.40441	0
67.9754	0.0486296	-7.2446	0
68.0544	0.048725	-7.15355	0
68.1206	0.0486869	-7.18793	0
68.1834	0.048725	-7.22804	0
68.2402	0.0487632	-7.29808	0
68.3012	0.0486678	-7.17711	0
68.3666	0.0485532	-7.33437	0
68.4184	0.048725	-7.12935	0
68.4824	0.0486487	-7.11789	0
68.5454	0.0487441	-7.19493	0
68.6068	0.0486869	-7.52921	0
68.6604	0.0487441	-7.11535	0
68.702	0.0486869	-7.37194	0
68.75	0.0486869	-7.12808	0
68.7998	0.048706	-7.27834	0
68.8512	0.048706	-7.18411	0
68.897	0.048706	-7.24778	0
68.942	0.0487823	-7.30254	0
68.9818	0.0488014	-7.31018	0
69.0272	0.0486487	-7.06123	0
69.0748	0.0486869	-7.23059	0
69.1154	0.048725	-7.2637	0
69.1608	0.0487632	-7.17138	0
69.2016	0.0486678	-7.25606	0
69.244	0.0487441	-7.59797	0
69.2856	0.0487823	-7.484	0
69.3276	0.0486105	-7.09052	0
69.3662	0.0487823	-7.35921	0
69.409	0.0486105	-7.22613	0
69.451	0.0486678	-7.10898	0
69.4914	0.0488396	-7.14718	0
69.5298	0.0486105	-7.33565	0
69.5692	0.0486105	-7.5222	0
69.6098	0.0486487	-7.15801	0
69.6478	0.048725	-7.73805	0
69.6852	0.0487823	-7.59924	0
69.7226	0.0486869	-8.48045	0
69.7604	0.0486487	-7.9558	0
69.7986	0.0491069	-7.4407	0
69.8374	0.0486678	-8.90895	0
69.876	0.0487632	-8.29517	0
69.9136	0.0483814	-7.94498	0
69.9528	0.0488014	-8.44352	0
69.9906	0.0486296	-7.58078	0
70.0288	0.048706	-8.04876	0
70.066	0.0486105	-7.68456	0
70.1034	0.0486678	-7.67374	0
70.1408	0.0486678	-7.50819	0
70.1788	0.0487823	-8.27033	0
70.2172	0.0486487	-8.7918	0
70.2546	0.0486487	-8.26651	0
70.2914	0.0488014	-8.00865	0
70.3294	0.0485723	-7.80936	0
70.367	0.0486869	-7.96408	0
70.4046	0.0490496	-8.16018	0
70.4418	0.0485723	-9.04648	0
70.4792	0.0486869	-10.2416	0
70.5172	0.0486678	-8.50846	0
70.555	0.0486678	-8.39895	0
70.592	0.048496	-8.18947	0
70.6294	0.0489732	-10.9413	0
70.6664	0.0486105	-8.39577	0
70.7034	0.0487441	-10.3715	0
70.7406	0.0487632	-9.64562	0
70.7782	0.0488969	-9.01082	0
70.8152	0.048706	-8.89558	0
70.8518	0.0487632	-8.80899	0
70.8888	0.0485914	-8.68037	0
70.9258	0.0486296	-9.02101	0
70.963	0.0486678	-8.79052	0
70.9996	0.0490305	-9.38775	0
71.0364	0.0484769	-10.5567	0
71.0728	0.0488778	-12.0384	0
71.1098	0.0485914	-9.18465	0
71.1702	0.0485341	-10.9038	0
71.2564	0.0483814	-10.8197	0
71.367	0.0489923	-10.0792	0
71.4534	0.048515	-12.0409	0
71.564	0.0486296	-10.6293	0
71.6574	0.0488969	-10.3027	0
71.7686	0.049126	-11.3463	0
71.855	0.0494123	-13.6333	0
71.97	0.048935	-14.5164	0
72.0542	0.0487632	-15.1792	0
72.1636	0.048725	-14.745	0
72.2716	0.0480378	-15.8039	0
72.356	0.0481714	-15.3397	0
72.4656	0.049546	-21.936	0
72.5502	0.0477705	-22.0576	0
72.6496	0.0494505	-23.0598	0
72.7406	0.0488396	-21.044	0
72.8492	0.049336	-25.0807	0
72.9336	0.0488587	-22.7981	0
73.0498	0.0466441	-25.3239	0
73.1344	0.0487823	-31.5662	0
73.243	0.0478278	-28.9735	0
73.3282	0.0484387	-29.8738	0
73.4368	0.0490114	-31.3752	0
73.5202	0.048286	-35.6176	0
73.6282	0.0488014	-35.361	0
73.7116	0.0474651	-34.3702	0
73.8206	0.0475414	-39.5072	0
73.929	0.0475796	-33.9914	0
74.0206	0.0465487	-48.1276	0
74.131	0.0479996	-42.2533	0
74.216	0.048095	-42.1113	0
74.3256	0.0487632	-40.9837	0
74.4106	0.048496	-40.5565	0
74.52	0.047446	-38.2421	0
74.6054	0.0472169	-40.4502	0
74.7148	0.0503287	-51.7785	0
74.7998	0.0480378	-48.9629	0
74.9086	0.055235	-54.303	0
74.9942	0.0533832	-53.439	0
75.111	0.0472169	-59.687	0
75.1956	0.0500423	-52.9532	0
75.3052	0.0477514	-56.3316	0
75.39	0.0493741	-60.7509	0
75.5002	0.0475223	-66.1222	0
75.5858	0.0478087	-71.3871	0
75.6954	0.0481905	-67.1798	0
75.8048	0.0494314	-73.245	0
75.8898	0.0472169	-81.8323	0
75.9992	0.0476369	-74.5955	0
76.0916	0.0485341	-78.4718	0
76.2012	0.0503669	-79.7872	0
76.2868	0.0485914	-86.4102	0
76.4016	0.0492214	-90.637	0
76.4788	0.0461287	-89.5666	0
76.5882	0.049145	-95.0331	0
76.6732	0.0493741	-102.927	0
76.7826	0.0493741	-93.0453	0
76.8672	0.048706	-107.903	0
76.9756	0.048076	-104.998	0
77.069	0.0506723	-105.768	0
77.179	0.0479805	-98.2696	0
77.2644	0.0485341	-103.653	0
77.3736	0.049126	-103.437	0
77.4838	0.0493932	-105.762	0
77.5682	0.0494887	-113.751	0
77.678	0.049126	-113.815	0
77.7622	0.0473123	-112.936	0
77.872	0.0494505	-120.594	0
77.9568	0.0484005	-108.655	0
78.074	0.0496796	-111.751	0
78.1592	0.048916	-118.931	0
78.2686	0.0482096	-117.128	0
78.3536	0.0491069	-114.943	0
78.4642	0.0496605	-114.35	0
78.5498	0.048706	-112.184	0
78.6592	0.0465296	-117.408	0
78.7442	0.0485532	-116.09	0
78.8544	0.0492023	-105.463	0
78.9396	0.0477514	-119.466	0
79.049	0.0487632	-117.154	0
79.1406	0.0483432	-120.479	0
79.2518	0.0484196	-127.889	0
79.3634	0.0503287	-120.639	0
79.4494	0.049756	-132.521	0
79.561	0.0497369	-128.118	0
79.647	0.0484196	-135.802	0
79.7576	0.0492023	-148.13	0
79.8432	0.048935	-147.372	0
79.9552	0.0494887	-138.567	0
80.041	0.0484196	-132.807	0
80.1592	0.0485532	-136.904	0
80.2452	0.0488014	-135.216	0
80.3562	0.0485723	-136.955	0
80.4418	0.0488778	-139.153	0
80.5532	0.0485914	-151.672	0
80.6394	0.048076	-166.351	0
80.7506	0.047656	-148.716	0
80.8366	0.0473314	-148.162	0
80.9466	0.0489923	-155.75	0
81.0574	0.0526196	-153.909	0
81.1512	0.0471405	-154.183	0
81.2612	0.0461669	-149.372	0
81.3446	0.0461096	-163.3	0
81.4308	0.0477705	-155.731	0
81.502	0.0506341	-145.843	0
81.6418	0.0474651	-157.508	0
81.727	0.0487632	-148.347	0
81.8364	0.0468351	-177.781	0
81.921	0.0482096	-178.794	0
82.0298	0.0464914	-167.103	0
82.1154	0.0488396	-179.718	0
82.2328	0.0506532	-179.744	0
82.3176	0.047866	-174.29	0
82.4268	0.0503859	-177.463	0
82.512	0.0494505	-190.358	0
82.6214	0.0479423	-167.161	0
82.707	0.0493741	-189.319	0
82.8166	0.0499659	-188.446	0
82.9258	0.0515314	-190.377	0
83.0112	0.0495078	-186.293	0
83.1202	0.0498323	-199.864	0
83.2044	0.0494696	-195.894	0
83.2916	0.0496414	-193.594	0
83.3622	0.0489732	-202.113	0
83.4482	0.049336	-201.303	0
83.5782	0.0475987	-187.727	0
83.6646	0.0495841	-205.98	0
83.6972	0.0505005	-198.627	0