Folder: SUMMER-JOB-2024-MATERIALS-PHYSICS/EXPERIMENTAL/DATA/Electrochemical-cycling/I-cell_S-series

Note: EXPERIMENTAL/DATA/Electrochemical-cycling/I-cell_S-series/2024-06-14_S04_Icell_t0020_C0500_J01_deltaX-110,1mm_01_OCV_C04.txt
time/s	<Ewe/V>	error	
9.999999747378752E+000	2.3914249E+000	0
1.999999949475750E+001	2.3917921E+000	0
2.999999924213625E+001	2.3921516E+000	0
3.999999898951501E+001	2.3925002E+000	0
4.999999873689376E+001	2.3928659E+000	0
5.999979848427756E+001	2.3932245E+000	0

File: 2024-06-14_S04_Icell_t0020_C0500_J01_deltaX-110,1mm_04_CP_C04.txt
time/s	Ewe/V	I/mA	error
80.2058	0.0314669	-0.194734	0
80.2062	0.0214153	-0.195981	0
80.2066	0.0187045	-0.195978	0
80.2074	0.0157455	-0.195981	0
80.2082	0.0133783	-0.195975	0
80.2092	0.0105912	-0.195977	0
80.2102	0.00797581	-0.195978	0
80.2112	0.0056659	-0.195985	0
80.2124	0.00289784	-0.195982	0
80.2136	0.000473389	-0.195983	0
80.2148	-0.00202742	-0.19598	0
80.216	-0.00447095	-0.195984	0
80.2172	-0.00668541	-0.195984	0
80.2184	-0.00909076	-0.195981	0
80.2198	-0.0115343	-0.195984	0
80.2212	-0.0139778	-0.195976	0
80.2226	-0.0164405	-0.195982	0
80.2242	-0.0191322	-0.195982	0
80.2258	-0.0215375	-0.195988	0
80.2272	-0.0238283	-0.195981	0
80.2286	-0.0258901	-0.19598	0
80.2302	-0.0282954	-0.195988	0
80.2318	-0.0306053	-0.195983	0
80.2334	-0.0328961	-0.195978	0
80.235	-0.0350915	-0.195991	0
80.2368	-0.037516	-0.195979	0
80.2386	-0.0397304	-0.195981	0
80.2402	-0.0418303	-0.195981	0
80.242	-0.0440257	-0.195986	0
80.244	-0.0462592	-0.195985	0
80.2458	-0.048321	-0.19598	0
80.2478	-0.0505163	-0.195979	0
80.2498	-0.0526735	-0.195983	0
80.252	-0.0549262	-0.195981	0
80.254	-0.0570261	-0.195985	0
80.2562	-0.0591451	-0.195985	0
80.2586	-0.0612832	-0.195981	0
80.261	-0.0635549	-0.195982	0
80.2634	-0.0656357	-0.195977	0
80.266	-0.067812	-0.19598	0
80.2688	-0.0698928	-0.195982	0
80.2714	-0.0720118	-0.195984	0
80.2744	-0.0740736	-0.195981	0
80.2772	-0.0761162	-0.195982	0
80.2804	-0.0782543	-0.195982	0
80.2836	-0.0802778	-0.195982	0
80.2872	-0.0823587	-0.195978	0
80.291	-0.0844968	-0.195986	0
80.2952	-0.0867494	-0.19598	0
80.2994	-0.088792	-0.195981	0
80.3038	-0.0908538	-0.195989	0
80.3086	-0.0929346	-0.195982	0
80.3136	-0.0950345	-0.195984	0
80.3194	-0.0972871	-0.195984	0
80.3256	-0.0994443	-0.195979	0
80.3322	-0.101659	-0.19598	0
80.3398	-0.103854	-0.195981	0
80.347	-0.105935	-0.195979	0
80.3556	-0.108054	-0.195981	0
80.3646	-0.110249	-0.195982	0
80.375	-0.112349	-0.195984	0
80.3856	-0.114449	-0.195981	0
80.397	-0.116549	-0.195981	0
80.4096	-0.118668	-0.195984	0
80.4234	-0.120768	-0.195981	0
80.4392	-0.122906	-0.195979	0
80.4562	-0.125006	-0.195981	0
80.4732	-0.12703	-0.195982	0
80.4932	-0.129129	-0.195986	0
80.5152	-0.131248	-0.195983	0
80.5372	-0.133272	-0.195988	0
80.562	-0.135391	-0.19598	0
80.5882	-0.13751	-0.195984	0
80.6178	-0.139648	-0.195979	0
80.6496	-0.141691	-0.195985	0
80.6828	-0.143714	-0.195981	0
80.7184	-0.145852	-0.195982	0
80.7584	-0.147895	-0.195982	0
80.8038	-0.150014	-0.195982	0
80.8532	-0.152095	-0.195981	0
80.9124	-0.154157	-0.195985	0
80.9834	-0.156199	-0.195984	0
81.093	-0.158242	-0.195984	0
81.4114	-0.156199	-0.195982	0
81.5078	-0.154157	-0.19598	0
81.5966	-0.152114	-0.195988	0
81.684	-0.149976	-0.195977	0
81.7758	-0.147952	-0.195982	0
81.8676	-0.145929	-0.195986	0
81.9756	-0.143905	-0.195982	0
82.1036	-0.141767	-0.195984	0
82.2516	-0.13961	-0.195988	0
82.433	-0.137548	-0.195985	0
82.6428	-0.135486	-0.195984	0
82.9102	-0.133406	-0.195981	0
83.2728	-0.131344	-0.195977	0
83.7656	-0.129301	-0.195987	0
84.4874	-0.127278	-0.195984	0
85.6238	-0.125254	-0.195982	0
87.865	-0.123231	-0.195979	0
94.0894	-0.121207	-0.195988	0
114.089	-0.120367	-0.195984	0
134.089	-0.120062	-0.195981	0
154.089	-0.119451	-0.195984	0
174.089	-0.118687	-0.195988	0
194.089	-0.117542	-0.195984	0
214.089	-0.116606	-0.195986	0
234.089	-0.115404	-0.195989	0
254.089	-0.114449	-0.195989	0
274.089	-0.113151	-0.195981	0
294.089	-0.112139	-0.195993	0
314.089	-0.111032	-0.195984	0
334.089	-0.110268	-0.195979	0
354.089	-0.109276	-0.195986	0
374.089	-0.108474	-0.19599	0
394.089	-0.107691	-0.195989	0
414.089	-0.107023	-0.195986	0
434.089	-0.106298	-0.195982	0
454.089	-0.105668	-0.195989	0
474.089	-0.105095	-0.195984	0
494.089	-0.104656	-0.195982	0
514.089	-0.104007	-0.19599	0
534.089	-0.103625	-0.195982	0
554.089	-0.103091	-0.195981	0
574.089	-0.102556	-0.195984	0
594.089	-0.102231	-0.195988	0
614.089	-0.101754	-0.195986	0
634.089	-0.10143	-0.195984	0
654.089	-0.100972	-0.195986	0
674.089	-0.100628	-0.195987	0
694.089	-0.100322	-0.195985	0
714.089	-0.0999025	-0.195989	0
734.089	-0.099578	-0.195987	0
754.089	-0.0992725	-0.195984	0
774.089	-0.0989289	-0.195988	0
794.089	-0.0986807	-0.195984	0
814.089	-0.0983562	-0.195984	0
834.089	-0.0981844	-0.195987	0
854.089	-0.0978026	-0.195988	0
874.089	-0.0975353	-0.195984	0
894.089	-0.0972681	-0.195988	0
914.089	-0.0969626	-0.195986	0
934.089	-0.0968481	-0.195982	0
954.089	-0.0966381	-0.195988	0
974.089	-0.0963136	-0.195981	0
994.089	-0.095989	-0.19598	0
1014.09	-0.0957599	-0.195983	0
1034.09	-0.0955499	-0.195989	0
1054.09	-0.0953018	-0.195987	0
1074.09	-0.0949963	-0.195989	0
1094.09	-0.0948054	-0.195984	0
1114.09	-0.0947672	-0.195989	0
1134.09	-0.0945	-0.195988	0
1154.09	-0.0942136	-0.195983	0
1174.09	-0.0940036	-0.195982	0
1194.09	-0.0939082	-0.195985	0
1214.09	-0.0935264	-0.195984	0
1234.09	-0.0934309	-0.195982	0
1254.09	-0.0933737	-0.195989	0
1274.09	-0.0931446	-0.195982	0
1294.09	-0.0928582	-0.195982	0
1314.09	-0.0926864	-0.195983	0
1334.09	-0.092381	-0.195977	0
1354.09	-0.0922283	-0.195988	0
1374.09	-0.0922855	-0.195984	0
1394.09	-0.0918465	-0.195979	0
1414.09	-0.0917319	-0.195982	0
1434.09	-0.0915983	-0.195986	0
1454.09	-0.0912547	-0.195984	0
1474.09	-0.0910829	-0.195983	0
1494.09	-0.0909683	-0.195988	0
1514.09	-0.0908156	-0.195994	0
1534.09	-0.0906056	-0.195987	0
1554.09	-0.0905292	-0.195983	0
1574.09	-0.0903383	-0.195986	0
1594.09	-0.0901283	-0.195984	0
1614.09	-0.089842	-0.195988	0
1634.09	-0.0897656	-0.195984	0
1654.09	-0.0894793	-0.195991	0
1674.09	-0.0894411	-0.195988	0
1694.09	-0.089212	-0.195988	0
1714.09	-0.0891738	-0.195984	0
1734.09	-0.0890975	-0.195989	0
1754.09	-0.0888875	-0.195987	0
1774.09	-0.0885248	-0.19599	0
1794.09	-0.0883721	-0.195989	0
1814.09	-0.0882575	-0.195991	0
1834.09	-0.0882002	-0.195991	0
1854.09	-0.0880093	-0.195988	0
1874.09	-0.0877612	-0.195986	0
1880.21	-0.0877039	-0.195986	0