Folder: SUMMER-JOB-2024-MATERIALS-PHYSICS/EXPERIMENTAL/DATA/Electrochemical-cycling/S-series (part 7)

File: 2024-07-02_S21_Icell_t1800_C0000_J01_deltaX-110,1mm_plating-stripping_04_CP_C03.txt
time/s	Ewe/V	I/mA	error
1860.26	-6.60662e-05	-0.194805	0
1860.27	-0.0517717	-0.195998	0
1860.28	-0.0897171	-0.195996	0
1860.3	-0.128903	-0.195992	0
1860.33	-0.163699	-0.195995	0
1860.38	-0.153335	-0.195994	0
1860.4	-0.117012	-0.195991	0
1860.53	-0.0832084	-0.195991	0
1932.7	0.92036	-0.195989	0
1932.71	0.878292	-0.195993	0
1932.73	0.837712	-0.195994	0
1932.75	0.80055	-0.195998	0
1932.77	0.765028	-0.195998	0
1932.79	0.728133	-0.195995	0
1932.82	0.69221	-0.195995	0
1932.84	0.656536	-0.195991	0
1932.87	0.620557	-0.195985	0
1932.9	0.584291	-0.195994	0
1932.93	0.548579	-0.195998	0
1932.96	0.514146	-0.195995	0
1932.99	0.479617	-0.195993	0
1933.03	0.444706	-0.195994	0
1933.06	0.409032	-0.195994	0
1933.1	0.374847	-0.195993	0
1933.14	0.339688	-0.195989	0
1933.18	0.305885	-0.195991	0
1933.22	0.271929	-0.195995	0
1933.26	0.237514	-0.195993	0
1933.31	0.20352	-0.195998	0
1933.36	0.170003	-0.195995	0
1933.41	0.136333	-0.195991	0
1933.46	0.102759	-0.195996	0
1933.52	0.068936	-0.195994	0
1933.59	0.0347126	-0.195992	0
1933.65	0.00201614	-0.195995	0
1933.73	-0.0314247	-0.19599	0
1933.82	-0.0648273	-0.195993	0
1934.19	-0.0726913	-0.195992	0
1948.2	-0.0633958	-0.195999	0
1961.53	-0.0954051	-0.195998	0
2002.41	0.889935	-0.195999	0
2002.42	0.851589	-0.195994	0
2002.44	0.81183	-0.195994	0
2002.46	0.77566	-0.195993	0
2002.48	0.738745	-0.195994	0
2002.5	0.701869	-0.19599	0
2002.53	0.665641	-0.195996	0
2002.55	0.630292	-0.195996	0
2002.58	0.59351	-0.195987	0
2002.61	0.558733	-0.195996	0
2002.64	0.522582	-0.195989	0
2002.67	0.486507	-0.195989	0
2002.7	0.451043	-0.195994	0
2002.73	0.416381	-0.195987	0
2002.77	0.381241	-0.195994	0
2002.8	0.346083	-0.195991	0
2002.84	0.311229	-0.195994	0
2002.88	0.276777	-0.195993	0
2002.92	0.242515	-0.195996	0
2002.96	0.208196	-0.195996	0
2003.01	0.174278	-0.195993	0
2003.05	0.140761	-0.195987	0
2003.11	0.106538	-0.195995	0
2003.16	0.0724862	-0.195989	0
2003.22	0.0385491	-0.195993	0
2003.28	0.00545184	-0.195996	0
2003.35	-0.0280653	-0.195998	0
2003.43	-0.0613344	-0.195993	0
2004.16	-0.0625941	-0.196001	0
2024.57	-0.0801353	-0.195996	0
2070.11	0.908641	-0.195994	0
2070.12	0.866821	-0.195995	0
2070.14	0.826699	-0.195998	0
2070.16	0.787437	-0.195994	0
2070.17	0.751285	-0.195995	0
2070.2	0.71355	-0.195994	0
2070.22	0.675433	-0.195992	0
2070.24	0.63911	-0.195991	0
2070.27	0.60313	-0.195993	0
2070.29	0.567571	-0.195994	0
2070.32	0.532107	-0.195998	0
2070.35	0.496662	-0.195993	0
2070.38	0.461637	-0.195996	0
2070.41	0.426421	-0.195992	0
2070.44	0.391281	-0.195995	0
2070.47	0.356581	-0.195992	0
2070.51	0.321212	-0.195994	0
2070.55	0.286416	-0.195994	0
2070.58	0.252498	-0.195991	0
2070.62	0.218179	-0.195992	0
2070.67	0.183822	-0.195992	0
2070.71	0.149274	-0.195994	0
2070.76	0.115051	-0.195994	0
2070.81	0.0800447	-0.195991	0
2070.87	0.0455923	-0.195992	0
2070.92	0.0123805	-0.195992	0
2070.99	-0.0215566	-0.195997	0
2071.06	-0.0553601	-0.196	0
2072.42	-0.0609908	-0.195996	0
2092.7	-0.0886864	-0.19599	0
2135.41	0.892569	-0.195989	0
2135.42	0.852219	-0.195991	0
2135.43	0.813987	-0.195993	0
2135.45	0.775526	-0.195991	0
2135.47	0.738898	-0.195996	0
2135.49	0.702308	-0.195998	0
2135.51	0.66545	-0.195991	0
2135.53	0.628268	-0.195993	0
2135.56	0.592422	-0.195991	0
2135.58	0.557187	-0.195996	0
2135.61	0.521552	-0.195998	0
2135.64	0.48603	-0.195993	0
2135.67	0.449287	-0.195992	0
2135.7	0.413289	-0.195994	0
2135.73	0.378512	-0.195994	0
2135.76	0.34467	-0.195994	0
2135.79	0.309588	-0.195994	0
2135.83	0.274372	-0.195993	0
2135.87	0.240053	-0.195994	0
2135.91	0.204875	-0.195991	0
2135.95	0.170766	-0.195992	0
2135.99	0.136467	-0.195993	0
2136.04	0.102701	-0.195988	0
2136.09	0.0690314	-0.19599	0
2136.14	0.0356288	-0.195987	0
2136.2	0.00165348	-0.195996	0
2136.26	-0.0317492	-0.19599	0
2136.35	-0.064522	-0.195996	0
2151.18	-0.080078	-0.195995	0
2198.79	0.907915	-0.195991	0
2198.81	0.862869	-0.195993	0
2198.82	0.825058	-0.19599	0
2198.84	0.783218	-0.195989	0
2198.86	0.744624	-0.195992	0
2198.88	0.707996	-0.195996	0
2198.89	0.672894	-0.195993	0
2198.92	0.636266	-0.195994	0
2198.94	0.599313	-0.195998	0
2198.96	0.562303	-0.195991	0
2198.99	0.527106	-0.195996	0
2199.02	0.491069	-0.195988	0
2199.04	0.455071	-0.195993	0
2199.07	0.420275	-0.195994	0
2199.1	0.384963	-0.195994	0
2199.13	0.349117	-0.196001	0
2199.17	0.31394	-0.195988	0
2199.2	0.277884	-0.195994	0
2199.24	0.242477	-0.195989	0
2199.28	0.208177	-0.196	0
2199.32	0.173744	-0.195993	0
2199.36	0.139864	-0.195999	0
2199.41	0.105545	-0.195991	0
2199.45	0.071131	-0.195996	0
2199.5	0.0376138	-0.195991	0
2199.56	0.0028178	-0.195996	0
2199.62	-0.031272	-0.195991	0
2199.71	-0.0644838	-0.195996	0
2215.13	-0.0901943	-0.195996	0
2260.98	0.893943	-0.19599	0
2260.99	0.849814	-0.196	0
2261.01	0.812689	-0.195996	0
2261.02	0.773637	-0.195997	0
2261.04	0.734126	-0.195989	0
2261.06	0.695284	-0.195991	0
2261.08	0.659132	-0.195994	0
2261.1	0.620633	-0.195996	0
2261.13	0.583127	-0.195991	0
2261.15	0.547186	-0.195994	0
2261.18	0.511168	-0.195994	0
2261.2	0.475189	-0.195994	0
2261.23	0.440106	-0.195998	0
2261.26	0.404833	-0.195994	0
2261.29	0.369751	-0.195996	0
2261.32	0.333466	-0.195988	0
2261.35	0.298594	-0.195995	0
2261.39	0.263301	-0.195994	0
2261.42	0.227856	-0.195994	0
2261.46	0.193633	-0.195999	0
2261.5	0.159276	-0.196	0
2261.54	0.124862	-0.195993	0
2261.59	0.0910581	-0.195998	0
2261.64	0.0569301	-0.195994	0
2261.69	0.0233938	-0.195996	0
2261.74	-0.0100852	-0.196003	0
2261.81	-0.0432015	-0.195995	0
2268.44	-0.0755353	-0.195993	0
2289.64	-0.10743	-0.195998	0
2322.25	0.867718	-0.195994	0
2322.26	0.828226	-0.195989	0
2322.28	0.787475	-0.195995	0
2322.3	0.747258	-0.195998	0
2322.32	0.708931	-0.195998	0
2322.33	0.672875	-0.195992	0
2322.35	0.636476	-0.195993	0
2322.38	0.599657	-0.195993	0
2322.4	0.56236	-0.195998	0
2322.42	0.525884	-0.195993	0
2322.45	0.489695	-0.196001	0
2322.47	0.454288	-0.195993	0
2322.5	0.418022	-0.195991	0
2322.53	0.382558	-0.195995	0
2322.56	0.346216	-0.195996	0
2322.59	0.310676	-0.195994	0
2322.62	0.276147	-0.195995	0
2322.66	0.241618	-0.195994	0
2322.7	0.206899	-0.195994	0
2322.73	0.173057	-0.195992	0
2322.77	0.138261	-0.195997	0
2322.82	0.10419	-0.195991	0
2322.86	0.0703866	-0.195991	0
2322.91	0.0363922	-0.195995	0
2322.96	0.00289415	-0.195998	0
2323.02	-0.0308139	-0.195991	0
2323.11	-0.0641211	-0.195994	0
2336.66	-0.095825	-0.195995	0
2383.24	0.882148	-0.195995	0
2383.25	0.838228	-0.195991	0
2383.26	0.800359	-0.195991	0
2383.28	0.761077	-0.195992	0
2383.3	0.720899	-0.195992	0
2383.32	0.68324	-0.195995	0
2383.33	0.646668	-0.195997	0
2383.35	0.611185	-0.195994	0
2383.38	0.574977	-0.195989	0
2383.4	0.539589	-0.195994	0
2383.42	0.502693	-0.195996	0
2383.45	0.467096	-0.195993	0
2383.47	0.431822	-0.195988	0
2383.5	0.397275	-0.195997	0
2383.53	0.361658	-0.196	0
2383.56	0.325755	-0.195993	0
2383.59	0.289909	-0.195994	0
2383.62	0.25559	-0.195993	0
2383.66	0.220813	-0.195996	0
2383.69	0.185807	-0.195998	0
2383.73	0.151049	-0.195989	0
2383.78	0.116253	-0.195992	0
2383.82	0.0813236	-0.195998	0
2383.87	0.0473865	-0.195995	0
2383.92	0.0131058	-0.195996	0
2383.98	-0.0204686	-0.195993	0
2384.05	-0.0536995	-0.195991	0
2392.04	-0.0862623	-0.195997	0
2443.55	0.892302	-0.19599	0
2443.56	0.846416	-0.195994	0
2443.58	0.808375	-0.195987	0
2443.59	0.772682	-0.195993	0
2443.61	0.734145	-0.195992	0
2443.62	0.695303	-0.195996	0
2443.64	0.657777	-0.195999	0
2443.66	0.620748	-0.195997	0
2443.68	0.58389	-0.195994	0
2443.7	0.547739	-0.195996	0
2443.73	0.511092	-0.195993	0
2443.75	0.47538	-0.195992	0
2443.78	0.439228	-0.196	0
2443.8	0.403898	-0.195991	0
2443.83	0.36767	-0.19599	0
2443.86	0.332302	-0.195993	0
2443.89	0.296437	-0.195998	0
2443.92	0.261469	-0.196001	0
2443.96	0.226234	-0.195997	0
2443.99	0.191132	-0.195991	0
2444.03	0.156298	-0.195997	0
2444.07	0.121197	-0.195992	0
2444.12	0.0875079	-0.195996	0
2444.16	0.0534371	-0.195993	0
2444.21	0.0196146	-0.195996	0
2444.27	-0.0142844	-0.19599	0
2444.34	-0.048126	-0.195994	0
2448.18	-0.0805171	-0.195998	0
2503.66	0.897124	-0.195997	0
2503.67	0.851398	-0.19599	0
2503.69	0.811544	-0.195998	0
2503.7	0.773522	-0.195989	0
2503.72	0.735233	-0.195994	0
2503.73	0.695436	-0.195995	0
2503.75	0.656937	-0.195991	0
2503.77	0.619564	-0.195991	0
2503.79	0.582363	-0.19599	0
2503.81	0.545201	-0.195997	0
2503.84	0.509317	-0.195992	0
2503.86	0.472707	-0.195993	0
2503.89	0.436747	-0.195988	0
2503.91	0.401111	-0.195994	0
2503.94	0.365513	-0.195998	0
2503.97	0.33024	-0.195998	0
2504	0.294604	-0.19599	0
2504.03	0.260076	-0.195995	0
2504.06	0.225146	-0.195991	0
2504.1	0.190522	-0.195993	0
2504.13	0.156356	-0.195993	0
2504.18	0.121235	-0.195998	0
2504.22	0.0873361	-0.19599	0
2504.26	0.0535708	-0.195996	0
2504.31	0.0191946	-0.195991	0
2504.37	-0.014647	-0.195996	0
2504.44	-0.0482024	-0.195994	0
2507.01	-0.0784938	-0.195993	0
2539.66	-0.109549	-0.195998	0

File: 2024-07-02_S21_Icell_t1800_C0000_J01_deltaX-110,1mm_plating-stripping_05_MB_C03.txt
time/s	Ewe/V	I/mA	error	Ece/V
1896.36	-0.0567518	0.194833	0	-0.000563973
1896.75	-0.00596233	0.196039	0	0.000220731
1899.28	0.0394462	0.196037	0	-4.64685e-05
1924.92	0.0848166	0.196033	0	-2.73828e-05
1926.66	0.130664	0.196032	0	-8.29709e-06
1928.11	0.175996	0.196035	0	6.80457e-05
1930.3	0.2215	0.196045	0	0.000201646
1930.97	0.267462	0.196031	0	2.98743e-05
1931.28	0.313902	0.196032	0	2.98743e-05
1931.44	0.36099	0.196038	0	0.000125303
1931.56	0.407963	0.196031	0	2.98743e-05
1931.66	0.455472	0.196032	0	0.000125303
1931.75	0.502121	0.196038	0	0.000106217
1931.84	0.549877	0.196028	0	0.00018256
1931.93	0.59811	0.196037	0	-6.55542e-05
1932.02	0.645943	0.196043	0	4.896e-05
1932.1	0.693967	0.196034	0	6.80457e-05
1932.18	0.741036	0.196029	0	4.896e-05
1932.26	0.789155	0.196035	0	0.000106217
1932.33	0.837331	0.196035	0	2.98743e-05
1932.41	0.885202	0.196034	0	4.896e-05
1932.49	0.933779	0.196039	0	-8.29709e-06
1932.57	0.98163	0.196039	0	-8.29709e-06
1968.89	-0.0227018	0.196033	0	0.000144388
1969.93	0.0229548	0.196032	0	6.80457e-05
1995.25	0.0683443	0.196034	0	-8.29709e-06
1999.09	0.113867	0.196038	0	8.71314e-05
2000.12	0.159658	0.196038	0	4.896e-05
2000.71	0.205734	0.196039	0	6.80457e-05
2001	0.252116	0.196036	0	-8.29709e-06
2001.17	0.298174	0.196028	0	-8.29709e-06
2001.29	0.345586	0.196039	0	-4.64685e-05
2001.39	0.392617	0.196031	0	-2.73828e-05
2001.47	0.441022	0.196041	0	0.000106217
2001.55	0.489466	0.196034	0	-8.29709e-06
2001.63	0.537203	0.19603	0	-2.73828e-05
2001.71	0.586086	0.196035	0	-8.29709e-06
2001.78	0.634262	0.196036	0	2.98743e-05
2001.85	0.682247	0.196032	0	1.07886e-05
2001.92	0.732141	0.196037	0	2.98743e-05
2001.99	0.780451	0.196039	0	6.80457e-05
2002.05	0.829085	0.196046	0	1.07886e-05
2002.12	0.877872	0.196027	0	-8.29709e-06
2002.19	0.927174	0.196031	0	8.71314e-05
2002.26	0.976458	0.196036	0	-8.29709e-06
2038.55	-0.026462	0.196026	0	1.07886e-05
2039.44	0.0191374	0.196041	0	0.000106217
2061.04	0.064565	0.196034	0	1.07886e-05
2067.33	0.109764	0.196045	0	-8.46399e-05
2067.94	0.155668	0.196031	0	-8.29709e-06
2068.33	0.201974	0.196036	0	-8.46399e-05
2068.63	0.248413	0.196028	0	-6.55542e-05
2068.84	0.29533	0.196027	0	0.000144388
2068.98	0.342132	0.196031	0	-4.64685e-05
2069.08	0.389392	0.196028	0	0.000106217
2069.18	0.437434	0.196039	0	1.07886e-05
2069.26	0.484599	0.196034	0	4.896e-05
2069.33	0.532336	0.196039	0	1.07886e-05
2069.41	0.579901	0.196039	0	0.000163474
2069.48	0.628669	0.196033	0	4.896e-05
2069.55	0.676807	0.196039	0	-2.73828e-05
2069.62	0.724831	0.196031	0	2.98743e-05
2069.69	0.773732	0.19603	0	0.000144388
2069.76	0.821889	0.19602	0	4.896e-05
2069.82	0.870294	0.196038	0	-0.000122811
2069.89	0.919921	0.196035	0	0.000125303
2069.96	0.968613	0.196041	0	0.000125303
2106.22	-0.0375135	0.196035	0	8.71314e-05
2106.82	0.00869667	0.196029	0	6.80457e-05
2112.47	0.0539907	0.196035	0	1.07886e-05
2132.33	0.0992274	0.196032	0	-2.73828e-05
2133.09	0.14559	0.196036	0	4.896e-05
2133.44	0.191915	0.196047	0	-4.64685e-05
2133.76	0.238755	0.196032	0	-6.55542e-05
2134.01	0.285347	0.196035	0	4.896e-05
2134.19	0.332836	0.19604	0	6.80457e-05
2134.32	0.380325	0.196035	0	6.80457e-05
2134.42	0.429093	0.196039	0	0.000144388
2134.52	0.476067	0.196035	0	2.98743e-05
2134.6	0.523594	0.196027	0	0.000144388
2134.68	0.571331	0.196034	0	0.000163474
2134.76	0.618915	0.196034	0	0.000125303
2134.83	0.666424	0.196029	0	1.07886e-05
2134.9	0.714695	0.196036	0	0.000106217
2134.97	0.763005	0.196038	0	2.98743e-05
2135.03	0.81162	0.196028	0	-8.29709e-06
2135.1	0.860407	0.196029	0	0.000106217
2135.17	0.908717	0.196036	0	-8.29709e-06
2135.24	0.957618	0.196038	0	4.896e-05
2171.5	-0.0509891	0.196031	0	0.000125303
2171.87	-0.00258389	0.196035	0	1.07886e-05
2174.6	0.0429773	0.196037	0	4.896e-05
2194.73	0.0880423	0.196036	0	1.07886e-05
2196.14	0.133699	0.196034	0	6.80457e-05
2196.54	0.179871	0.196041	0	2.98743e-05
2196.88	0.226043	0.196036	0	2.98743e-05
2197.18	0.272215	0.196035	0	0.000106217
2197.41	0.318941	0.196036	0	0.000125303
2197.58	0.36559	0.196039	0	8.71314e-05
2197.72	0.412888	0.196035	0	4.896e-05
2197.83	0.459938	0.196038	0	-6.55542e-05
2197.93	0.50758	0.196034	0	1.07886e-05
2198.02	0.555622	0.196031	0	1.07886e-05
2198.11	0.603627	0.196032	0	6.80457e-05
2198.19	0.652089	0.196039	0	0.000163474
2198.26	0.699731	0.196038	0	2.98743e-05
2198.33	0.746991	0.196036	0	-0.000103726
2198.4	0.794881	0.196035	0	-4.64685e-05
2198.47	0.844565	0.196038	0	-8.29709e-06
2198.54	0.893943	0.196033	0	-8.29709e-06
2198.61	0.94275	0.196035	0	8.71314e-05
2198.68	0.991346	0.196032	0	6.80457e-05
2235.05	-0.0173765	0.196036	0	2.98743e-05
2236.51	0.0284138	0.196039	0	4.896e-05
2253.37	0.0738032	0.196034	0	0.000163474
2257.7	0.119231	0.196041	0	0.000106217
2258.27	0.16483	0.196032	0	2.98743e-05
2258.68	0.210735	0.196034	0	0.000106217
2259.06	0.256754	0.196039	0	1.07886e-05
2259.37	0.303003	0.196036	0	-8.29709e-06
2259.61	0.349576	0.196032	0	6.80457e-05
2259.79	0.396187	0.196036	0	6.80457e-05
2259.93	0.443714	0.196035	0	-6.55542e-05
2260.05	0.490611	0.196038	0	0.000125303
2260.15	0.537833	0.196032	0	2.98743e-05
2260.24	0.586047	0.196036	0	0.00018256
2260.33	0.633975	0.196033	0	0.000163474
2260.41	0.682361	0.196031	0	4.896e-05
2260.48	0.730366	0.196031	0	-8.29709e-06
2260.55	0.778065	0.196028	0	-2.73828e-05
2260.62	0.826298	0.196044	0	8.71314e-05
2260.69	0.873673	0.196038	0	-4.64685e-05
2260.76	0.921448	0.196035	0	8.71314e-05
2260.83	0.970006	0.196031	0	1.07886e-05
2297.09	-0.0389832	0.196039	0	8.71314e-05
2297.69	0.00732239	0.196038	0	0.000106217
2301.92	0.0529218	0.196031	0	8.71314e-05
2317.44	0.0982158	0.196025	0	0.000125303
2318.81	0.143529	0.196039	0	1.07886e-05
2319.39	0.189758	0.196034	0	-2.73828e-05
2319.91	0.236388	0.196034	0	1.07886e-05
2320.34	0.28235	0.196032	0	6.80457e-05
2320.67	0.328694	0.196036	0	-2.73828e-05
2320.91	0.375534	0.196032	0	6.80457e-05
2321.09	0.422947	0.196039	0	8.71314e-05
2321.23	0.470646	0.196032	0	1.07886e-05
2321.35	0.517524	0.196035	0	4.896e-05
2321.45	0.564651	0.196038	0	0.000125303
2321.54	0.61235	0.196039	0	8.71314e-05
2321.62	0.660888	0.196032	0	-2.73828e-05
2321.7	0.708606	0.196029	0	6.80457e-05
2321.78	0.75684	0.196036	0	0.000125303
2321.85	0.805226	0.196032	0	1.07886e-05
2321.92	0.853307	0.196039	0	2.98743e-05
2321.99	0.901617	0.196032	0	0.000125303
2322.06	0.949354	0.196036	0	8.71314e-05
2322.14	0.998236	0.196037	0	-2.73828e-05
2358.55	-0.0122039	0.196031	0	2.98743e-05
2360.38	0.0335101	0.196037	0	2.98743e-05
2374.47	0.0788995	0.196034	0	1.07886e-05
2378.88	0.124079	0.196038	0	8.71314e-05
2379.79	0.169946	0.196033	0	2.98743e-05
2380.45	0.215793	0.196031	0	-4.64685e-05
2381.03	0.261889	0.196032	0	0.000106217
2381.45	0.307717	0.196029	0	4.896e-05
2381.76	0.353927	0.196032	0	1.07886e-05
2381.98	0.400653	0.196035	0	4.896e-05
2382.14	0.447608	0.196031	0	8.71314e-05
2382.27	0.495154	0.196036	0	6.80457e-05
2382.38	0.542662	0.196036	0	2.98743e-05
2382.48	0.590895	0.196034	0	8.71314e-05
2382.57	0.639282	0.196036	0	1.07886e-05
2382.65	0.688259	0.196039	0	2.98743e-05
2382.73	0.736703	0.196034	0	6.80457e-05
2382.81	0.785184	0.196027	0	-4.64685e-05
2382.88	0.833418	0.196038	0	1.07886e-05
2382.95	0.881785	0.196031	0	8.71314e-05
2383.02	0.929751	0.196041	0	8.71314e-05
2383.1	0.977965	0.196043	0	0.000125303
2419.35	-0.033467	0.196032	0	-2.73828e-05
2420.07	0.0121324	0.196034	0	2.98743e-05
2425.12	0.0573119	0.196032	0	0.00018256
2437.49	0.102453	0.196034	0	4.896e-05
2439.32	0.147957	0.196034	0	0.000125303
2440.26	0.193843	0.196038	0	1.07886e-05
2440.96	0.239958	0.19603	0	4.896e-05
2441.48	0.285862	0.196037	0	0.000125303
2441.87	0.331958	0.196034	0	4.896e-05
2442.14	0.378607	0.196039	0	1.07886e-05
2442.34	0.425314	0.196037	0	0.000106217
2442.49	0.472345	0.196034	0	2.98743e-05
2442.61	0.519452	0.196038	0	6.80457e-05
2442.72	0.566979	0.196041	0	-8.29709e-06
2442.81	0.614678	0.196032	0	0.000125303
2442.9	0.662072	0.196043	0	-0.000160983
2442.99	0.710267	0.196029	0	6.80457e-05
2443.07	0.757985	0.196038	0	2.98743e-05
2443.14	0.805111	0.196043	0	1.07886e-05
2443.22	0.854395	0.196034	0	1.07886e-05
2443.29	0.903029	0.196045	0	4.896e-05
2443.37	0.951052	0.196032	0	4.896e-05
2443.44	0.998942	0.196029	0	-8.29709e-06
2479.85	-0.0105242	0.196033	0	-2.73828e-05
2481.88	0.0353997	0.196034	0	4.896e-05
2493.37	0.0805219	0.196026	0	8.71314e-05
2498.37	0.125988	0.196041	0	8.71314e-05
2499.78	0.171282	0.196043	0	8.71314e-05
2500.68	0.216862	0.196036	0	0.000144388
2501.33	0.262481	0.19603	0	-4.64685e-05
2501.77	0.308233	0.196039	0	4.896e-05
2502.09	0.354767	0.196043	0	-4.64685e-05
2502.32	0.401187	0.196036	0	0.000106217
2502.5	0.447989	0.196041	0	-8.46399e-05
2502.64	0.495326	0.196036	0	4.896e-05
2502.76	0.542967	0.196037	0	1.07886e-05
2502.86	0.590247	0.196039	0	8.71314e-05
2502.96	0.637716	0.196034	0	6.80457e-05
2503.05	0.685797	0.196038	0	-8.29709e-06
2503.13	0.733248	0.19604	0	-2.73828e-05
2503.21	0.781978	0.196037	0	1.07886e-05
2503.29	0.829161	0.196036	0	0.000106217
2503.37	0.877929	0.196038	0	-8.29709e-06
2503.44	0.925915	0.196032	0	0.000125303
2503.52	0.974797	0.196036	0	0.00018256
2539.78	-0.0343641	0.196031	0	8.71314e-05
2540.47	0.011827	0.196031	0	-0.000103726
2545.52	0.0575791	0.196043	0	8.71314e-05
2556.01	0.102606	0.19604	0	4.896e-05
2558.53	0.1479	0.196032	0	0.000163474
2559.79	0.193843	0.19604	0	4.896e-05
2560.6	0.23929	0.196035	0	1.07886e-05
2561.14	0.285442	0.196036	0	-4.64685e-05
2561.53	0.332073	0.196034	0	2.98743e-05
2561.8	0.378378	0.196039	0	-2.73828e-05
2562.01	0.424741	0.196044	0	-8.29709e-06
2562.17	0.471829	0.196037	0	-8.29709e-06
2562.3	0.518975	0.196045	0	2.98743e-05
2562.42	0.566769	0.196038	0	-2.73828e-05
2562.52	0.613934	0.196041	0	-2.73828e-05
2562.62	0.661747	0.196034	0	0.000106217
2562.71	0.708874	0.196036	0	1.07886e-05
2562.8	0.757107	0.196031	0	1.07886e-05
2562.88	0.805131	0.196041	0	0.000106217
2562.96	0.853536	0.196035	0	2.98743e-05
2563.04	0.901139	0.196034	0	8.71314e-05
2563.11	0.947445	0.196034	0	6.80457e-05
2563.2	0.995201	0.196031	0	1.07886e-05
2563.2	1.0007	0.196036	0	2.98743e-05