Folder: SUMMER-JOB-2024-MATERIALS-PHYSICS/EXPERIMENTAL/DATA/Electrochemical-cycling/S-series (part 4)

File: 2024-06-25_S15_Icell_t1800_C0030_J01_deltaX-110,2mm_02_MB_C04.txt
time/s	Ewe/V	I/mA	error
60.053	2.93585	-0.0250249	0
60.1436	0.0092509	-9.70545	0
60.1444	0.00926999	-9.58664	0
60.1452	0.0092509	-9.47057	0
60.146	0.00940363	-9.35819	0
60.1468	0.00923181	-9.24682	0
60.1476	0.00930818	-9.13845	0
60.1484	0.00926999	-9.03154	0
60.1492	0.00944181	-8.9273	0
60.15	0.00930818	-8.82529	0
60.1508	0.00936545	-8.725	0
60.152	0.00930818	-8.57902	0
60.1532	0.00926999	-8.43749	0
60.1544	0.00934635	-8.30048	0
60.1556	0.00938454	-8.16716	0
60.1568	0.00932727	-8.03791	0
60.158	0.00932727	-7.91236	0
60.1592	0.00932727	-7.78973	0
60.1604	0.00932727	-7.67232	0
60.1616	0.00936545	-7.55631	0
60.1628	0.00934635	-7.44552	0
60.164	0.00936545	-7.33721	0
60.1652	0.00928908	-7.23259	0
60.1664	0.00938454	-7.12994	0
60.168	0.00926999	-6.99898	0
60.1696	0.0092509	-6.87234	0
60.1712	0.00932727	-6.74997	0
60.1728	0.00944181	-6.63249	0
60.1744	0.00928908	-6.51884	0
60.176	0.00923181	-6.40996	0
60.1776	0.00932727	-6.3033	0
60.1792	0.00932727	-6.20244	0
60.181	0.00938454	-6.09063	0
60.183	0.0092509	-5.97328	0
60.185	0.00938454	-5.85886	0
60.187	0.00942272	-5.74922	0
60.189	0.00936545	-5.64441	0
60.1912	0.00928908	-5.53241	0
60.1936	0.00928908	-5.41722	0
60.196	0.00940363	-5.30656	0
60.1984	0.00930818	-5.1992	0
60.2008	0.00940363	-5.09681	0
60.2036	0.00932727	-4.98303	0
60.2064	0.00928908	-4.87497	0
60.2092	0.00934635	-4.76953	0
60.2124	0.00944181	-4.65715	0
60.2156	0.00926999	-4.55011	0
60.2188	0.00936545	-4.44714	0
60.2224	0.00930818	-4.33782	0
60.226	0.00938454	-4.23402	0
60.23	0.00938454	-4.12482	0
60.234	0.00932727	-4.02231	0
60.2382	0.00936545	-3.91851	0
60.2426	0.00938454	-3.81657	0
60.2474	0.00934635	-3.71176	0
60.2524	0.00944181	-3.60809	0
60.2578	0.0094609	-3.50392	0
60.2634	0.00936545	-3.40121	0
60.2694	0.00938454	-3.29825	0
60.2756	0.00936545	-3.19668	0
60.2822	0.00942272	-3.09556	0
60.2894	0.00930818	-2.99304	0
60.297	0.00930818	-2.89027	0
60.3052	0.00921272	-2.78858	0
60.314	0.00928908	-2.6858	0
60.3236	0.00932727	-2.58335	0
60.3338	0.00934635	-2.48191	0
60.345	0.00923181	-2.3799	0
60.3572	0.00938454	-2.27904	0
60.3704	0.00944181	-2.17824	0
60.3854	0.00934635	-2.07534	0
60.4022	0.00936545	-1.97205	0
60.4202	0.00932727	-1.87164	0
60.4406	0.00936545	-1.76988	0
60.4632	0.00930818	-1.66921	0
60.4888	0.00934635	-1.5686	0
60.5176	0.00942272	-1.46792	0
60.5504	0.00936545	-1.36731	0
60.5884	0.00942272	-1.26613	0
60.6314	0.0094609	-1.16539	0
60.6818	0.00934635	-1.06529	0
60.7422	0.00928908	-0.964494	0
60.813	0.00936545	-0.864393	0
60.8996	0.00921272	-0.764101	0
61.0086	0.00921272	-0.663364	0
61.1478	0.00923181	-0.563136	0
61.337	0.00930818	-0.462527	0
61.6288	0.00930818	-0.357128	0
62.0834	0.00940363	-0.256958	0
63.0208	0.00942272	-0.156782	0
66.5148	0.00942272	-0.056707	0
86.5148	0.00938454	-0.00911896	0
106.515	0.00919363	-0.00483853	0
126.515	0.00944181	-0.00329999	0
146.515	0.00934635	-0.00261002	0
166.515	0.00938454	-0.00219204	0
186.515	0.00928908	-0.0018772	0
206.515	0.00938454	-0.00171118	0
226.515	0.00932727	-0.00154688	0
246.515	0.00942272	-0.00143924	0
266.515	0.00942272	-0.00136679	0
286.515	0.00938454	-0.00127952	0
306.515	0.00921272	-0.00119511	0
326.515	0.00932727	-0.00112356	0
346.515	0.00938454	-0.00110045	0
366.515	0.00930818	-0.00106226	0
386.515	0.00926999	-0.00100051	0
406.515	0.0094609	-0.000952387	0
426.515	0.00942272	-0.000926478	0
446.515	0.00928908	-0.000930043	0
466.515	0.00936545	-0.000885865	0
486.515	0.00926999	-0.000836404	0
506.515	0.00942272	-0.000828447	0
526.515	0.00940363	-0.000803048	0
546.515	0.00940363	-0.000801011	0
566.515	0.00940363	-0.000786433	0
586.515	0.00934635	-0.000767145	0
606.515	0.00944181	-0.000737417	0
626.515	0.00938454	-0.000718957	0
646.515	0.00921272	-0.000707944	0
666.515	0.00940363	-0.000675479	0
686.515	0.00926999	-0.000667395	0
706.515	0.00938454	-0.000667522	0
726.515	0.00938454	-0.00064817	0
746.515	0.00934635	-0.000646069	0
766.515	0.00936545	-0.000615641	0
786.515	0.00936545	-0.00063633	0
806.515	0.00928908	-0.000620734	0
826.515	0.00938454	-0.000611695	0
846.515	0.00942272	-0.000568344	0
866.515	0.00930818	-0.000586741	0
886.515	0.00944181	-0.000593616	0
906.515	0.00934635	-0.000546064	0
926.515	0.00942272	-0.000565607	0
946.515	0.00928908	-0.000531678	0
966.515	0.00940363	-0.000552303	0
986.515	0.00951817	-0.000529386	0
1006.51	0.00934635	-0.000543964	0
1026.51	0.00938454	-0.000518564	0
1046.51	0.00938454	-0.000495584	0
1066.51	0.00940363	-0.000514108	0
1086.51	0.00936545	-0.00050004	0
1106.51	0.00932727	-0.00050074	0
1126.51	0.00930818	-0.000478524	0
1146.51	0.00928908	-0.000493229	0
1166.51	0.00930818	-0.000489346	0
1186.51	0.00926999	-0.000479797	0
1206.51	0.00938454	-0.000441667	0
1226.51	0.0092509	-0.000463437	0
1246.51	0.00930818	-0.00044746	0
1266.51	0.00923181	-0.000480179	0
1286.51	0.00942272	-0.000433009	0
1306.51	0.00934635	-0.000428299	0
1326.51	0.00944181	-0.000429381	0
1346.51	0.00934635	-0.000420533	0
1366.51	0.00926999	-0.000421933	0
1386.51	0.00936545	-0.000423079	0
1406.51	0.00940363	-0.000410348	0
1426.51	0.00936545	-0.000412576	0
1446.51	0.00938454	-0.000398507	0
1466.51	0.00934635	-0.000395515	0
1486.51	0.00934635	-0.00039176	0
1506.51	0.00942272	-0.000390614	0
1526.51	0.00938454	-0.000396216	0
1546.51	0.00940363	-0.000385394	0
1566.51	0.00921272	-0.000384821	0
1586.51	0.00934635	-0.000382529	0
1606.51	0.00932727	-0.000364196	0
1626.51	0.00926999	-0.000367825	0
1646.51	0.00940363	-0.000373172	0
1666.51	0.00934635	-0.000358594	0
1686.51	0.00936545	-0.000352993	0
1706.51	0.00930818	-0.000348791	0
1726.51	0.00932727	-0.000347327	0
1746.51	0.00934635	-0.000354457	0
1766.51	0.00928908	-0.000352292	0
1786.51	0.00936545	-0.00033746	0
1806.51	0.00932727	-0.000329248	0
1826.51	0.00932727	-0.000337206	0
1846.51	0.00934635	-0.000329503	0
1860.05	0.00930818	-0.000336442	0

File: 2024-06-27_S17_Icell_t1800_C0010_J01_deltaX-110,3mm_02_MB_C04.txt
time/s	Ewe/V	I/mA	error	Ece/V
60.053	2.78643	-0.0250249	0	-0.000304428
60.1736	0.00932727	-7.41846	0	-4.68203e-05
60.1744	0.00936545	-7.30964	0	-2.77323e-05
60.1752	0.00940363	-7.20082	0	-0.000104084
60.1762	0.00944181	-7.06399	0	2.95314e-05
60.1774	0.00936545	-6.91444	0	-6.59082e-05
60.1784	0.00928908	-6.79989	0	-0.000123172
60.1794	0.00942272	-6.68344	0	-8.49961e-05
60.1806	0.00932727	-6.5358	0	-4.68203e-05
60.1818	0.00928908	-6.41297	0	-0.000180436
60.183	0.00934635	-6.29588	0	-2.77323e-05
60.184	0.00926999	-6.18897	0	-0.000104084
60.1852	0.00936545	-6.07887	0	1.04435e-05
60.1866	0.00936545	-5.95414	0	-0.000123172
60.188	0.00940363	-5.81986	0	6.77073e-05
60.1896	0.00938454	-5.69768	0	-4.68203e-05
60.1908	0.00940363	-5.59395	0	-8.64441e-06
60.1924	0.00928908	-5.47176	0	-0.00014226
60.194	0.00934635	-5.35785	0	-6.59082e-05
60.1956	0.00942272	-5.24903	0	-0.00014226
60.1972	0.00942272	-5.14021	0	-0.000104084
60.199	0.00926999	-5.0263	0	0.000105883
60.2008	0.00932727	-4.92002	0	-6.59082e-05
60.2028	0.00936545	-4.80038	0	-0.000123172
60.2048	0.00928908	-4.69474	0	-6.59082e-05
60.2068	0.00934635	-4.58783	0	-2.77323e-05
60.2092	0.00934635	-4.47455	0	-2.77323e-05
60.2116	0.00936545	-4.367	0	4.86194e-05
60.2142	0.00932727	-4.25373	0	-6.59082e-05
60.217	0.00932727	-4.12963	0	-8.64441e-06
60.22	0.00944181	-4.0189	0	-4.68203e-05
60.223	0.00926999	-3.90626	0	-4.68203e-05
60.2264	0.00938454	-3.79808	0	-0.000123172
60.2298	0.00938454	-3.68162	0	-8.64441e-06
60.2338	0.00942272	-3.55752	0	-2.77323e-05
60.2378	0.00940363	-3.45507	0	-6.59082e-05
60.2418	0.00928908	-3.34561	0	-2.77323e-05
60.2464	0.00942272	-3.23297	0	-4.68203e-05
60.2514	0.00932727	-3.12415	0	-8.49961e-05
60.2562	0.00926999	-3.02296	0	-8.64441e-06
60.2618	0.00932727	-2.91096	0	6.77073e-05
60.2684	0.00936545	-2.79196	0	-2.77323e-05
60.273	0.00940363	-2.80765	0	1.04435e-05
60.3076	0.00934635	-2.25657	0	-0.00014226
60.3174	0.00930818	-2.15399	0	-8.64441e-06
60.3282	0.00928908	-2.05071	0	0.000220411
60.3398	0.00921272	-1.95016	0	2.95314e-05
60.3528	0.00936545	-1.84815	0	-0.000123172
60.3676	0.0092509	-1.74583	0	-6.59082e-05
60.3842	0.00940363	-1.64413	0	-2.77323e-05
60.4026	0.00932727	-1.5434	0	6.77073e-05
60.4236	0.00934635	-1.44311	0	-8.64441e-06
60.4482	0.00928908	-1.34192	0	-0.00014226
60.4766	0.00938454	-1.24182	0	6.77073e-05
60.5102	0.00934635	-1.14134	0	2.95314e-05
60.5516	0.00932727	-1.0392	0	-6.59082e-05
60.6024	0.00940363	-0.938275	0	1.04435e-05
60.666	0.00936545	-0.837793	0	-0.000123172
60.7482	0.00944181	-0.737374	0	-8.64441e-06
60.8574	0.00932727	-0.637273	0	-2.77323e-05
61.0134	0.00936545	-0.536218	0	-0.000104084
61.2394	0.00926999	-0.436181	0	4.86194e-05
61.6042	0.00932727	-0.336137	0	1.04435e-05
62.2812	0.00934635	-0.236031	0	-8.64441e-06
63.9524	0.00940363	-0.135873	0	1.04435e-05
74.7268	0.00936545	-0.0358042	0	-2.77323e-05
94.7268	0.00930818	-0.0149021	0	2.95314e-05
114.727	0.0092509	-0.00932446	0	-0.000123172
134.727	0.00944181	-0.00672044	0	-8.64441e-06
154.727	0.00936545	-0.00538186	0	1.04435e-05
174.727	0.00936545	-0.0044872	0	-4.68203e-05
194.727	0.00928908	-0.00382701	0	-6.59082e-05
214.727	0.00928908	-0.00332533	0	1.04435e-05
234.727	0.00932727	-0.00299126	0	4.86194e-05
254.727	0.00938454	-0.00277826	0	4.86194e-05
274.727	0.00938454	-0.00246246	0	4.86194e-05
294.727	0.00930818	-0.00225736	0	-4.68203e-05
314.727	0.00934635	-0.00209853	0	-6.59082e-05
334.727	0.00934635	-0.00195008	0	1.04435e-05
354.727	0.00938454	-0.00185714	0	-2.77323e-05
374.727	0.00942272	-0.00175166	0	-0.000218612
394.727	0.00936545	-0.0016409	0	-8.64441e-06
414.727	0.00940363	-0.00157425	0	-8.64441e-06
434.727	0.00938454	-0.00151289	0	8.67952e-05
454.727	0.00942272	-0.00144426	0	-0.00014226
474.727	0.00940363	-0.00138551	0	8.67952e-05
494.727	0.00921272	-0.00128665	0	4.86194e-05
514.727	0.00932727	-0.00121771	0	2.95314e-05
534.727	0.00932727	-0.00121981	0	-8.64441e-06
554.727	0.00934635	-0.00117258	0	6.77073e-05
574.727	0.00915545	-0.00114247	0	4.86194e-05
594.727	0.00934635	-0.00108021	0	8.67952e-05
614.727	0.00938454	-0.00104488	0	-8.64441e-06
634.727	0.00936545	-0.00101242	0	-0.000123172
654.727	0.00934635	-0.000962126	0	4.86194e-05
674.727	0.00926999	-0.000963845	0	-2.77323e-05
694.727	0.00934635	-0.000930871	0	2.95314e-05
714.727	0.00926999	-0.000929534	0	-8.64441e-06
734.727	0.00938454	-0.000906363	0	-8.64441e-06
754.727	0.00934635	-0.000920113	0	4.86194e-05
774.727	0.00934635	-0.000855692	0	0.000124971
794.727	0.00926999	-0.000843852	0	-8.64441e-06
814.727	0.00930818	-0.000815079	0	-8.64441e-06
834.727	0.00928908	-0.000763326	0	-4.68203e-05
854.727	0.00934635	-0.000759952	0	8.67952e-05
874.727	0.00930818	-0.000777457	0	-2.77323e-05
894.727	0.00938454	-0.000749448	0	-4.68203e-05
914.727	0.00936545	-0.000718893	0	-2.77323e-05
934.727	0.00930818	-0.000710936	0	4.86194e-05
954.727	0.0094609	-0.000653963	0	2.95314e-05
974.727	0.00938454	-0.000643714	0	-8.64441e-06
994.727	0.00932727	-0.000675861	0	-6.59082e-05
1014.73	0.00934635	-0.000671914	0	-0.000104084
1034.73	0.00928908	-0.000642186	0	-8.64441e-06
1054.73	0.00936545	-0.000634038	0	2.95314e-05
1074.73	0.00940363	-0.000643205	0	-8.64441e-06
1094.73	0.00940363	-0.000614368	0	2.95314e-05
1114.73	0.00928908	-0.000603419	0	-0.00014226
1134.73	0.00934635	-0.000603738	0	-4.68203e-05
1154.73	0.00934635	-0.000561151	0	-8.49961e-05
1174.73	0.00934635	-0.000623662	0	-0.000104084
1194.73	0.0094609	-0.000567135	0	6.77073e-05
1214.73	0.00921272	-0.000566053	0	4.86194e-05
1234.73	0.00938454	-0.000509843	0	1.04435e-05
1254.73	0.00938454	-0.000544791	0	1.04435e-05
1274.73	0.00940363	-0.000535752	0	8.67952e-05
1294.73	0.00936545	-0.000534288	0	1.04435e-05
1314.73	0.00942272	-0.00052684	0	0.000124971
1334.73	0.00951817	-0.000538553	0	8.67952e-05
1354.73	0.00940363	-0.000513981	0	8.67952e-05
1374.73	0.00932727	-0.000478333	0	-8.64441e-06
1394.73	0.00944181	-0.00050787	0	-6.59082e-05
1414.73	0.00936545	-0.000511944	0	-4.68203e-05
1434.73	0.0092509	-0.000467957	0	-4.68203e-05
1454.73	0.00930818	-0.000494757	0	4.86194e-05
1474.73	0.00932727	-0.000484317	0	-8.49961e-05
1494.73	0.00936545	-0.000438484	0	-8.64441e-06
1514.73	0.00942272	-0.000447396	0	-8.49961e-05
1534.73	0.00942272	-0.000461655	0	-4.68203e-05
1554.73	0.00932727	-0.000453507	0	6.77073e-05
1574.73	0.00928908	-0.000445486	0	-4.68203e-05
1594.73	0.00928908	-0.00046592	0	-2.77323e-05
1614.73	0.00938454	-0.000437147	0	8.67952e-05
1634.73	0.00930818	-0.000402072	0	-0.000104084
1654.73	0.00938454	-0.000462928	0	2.95314e-05
1674.73	0.00938454	-0.000430081	0	4.86194e-05
1694.73	0.00928908	-0.000397807	0	-8.64441e-06
1714.73	0.00921272	-0.000417732	0	-8.64441e-06
1734.73	0.00936545	-0.000409647	0	-0.000104084
1754.73	0.00934635	-0.000445295	0	-8.64441e-06
1774.73	0.00938454	-0.000409584	0	-0.000104084
1794.73	0.00936545	-0.000425116	0	-2.77323e-05
1814.73	0.00932727	-0.000389468	0	-0.000104084
1834.73	0.00934635	-0.000387686	0	4.86194e-05
1854.73	0.00938454	-0.000375209	0	0.000105883
1860.05	0.00928908	-0.00039176	0	0.000144059

File: 2024-06-27_S17_Icell_t1800_C0010_J01_deltaX-110,3mm_04_CP_C04.txt
time/s	Ewe/V	I/mA	error	Ece/V
1860.21	0.0022812	-0.194747	0	-0.000304428
1860.21	-0.00204651	-0.195981	0	4.86194e-05
1860.21	-0.00489094	-0.195982	0	-2.77323e-05
1860.21	-0.00767809	-0.195978	0	1.04435e-05
1860.21	-0.00996891	-0.195977	0	4.86194e-05
1860.21	-0.0123552	-0.195979	0	-8.49961e-05
1860.21	-0.0146842	-0.195982	0	0.000105883
1860.21	-0.0175095	-0.195983	0	-0.000123172
1860.21	-0.0198194	-0.195981	0	2.95314e-05
1860.21	-0.022072	-0.195983	0	8.67952e-05
1860.22	-0.024382	-0.195977	0	1.04435e-05
1860.22	-0.02673	-0.195979	0	2.95314e-05
1860.22	-0.0290018	-0.195981	0	-4.68203e-05
1860.22	-0.0316553	-0.19598	0	4.86194e-05
1860.22	-0.0340416	-0.195986	0	-0.000123172
1860.22	-0.0365424	-0.195984	0	6.77073e-05
1860.22	-0.0389095	-0.195984	0	-2.77323e-05
1860.22	-0.0410095	-0.19598	0	0.000105883
1860.23	-0.0436248	-0.195982	0	1.04435e-05
1860.23	-0.0461256	-0.195984	0	0.000163147
1860.23	-0.0484928	-0.195984	0	-4.68203e-05
1860.23	-0.0508981	-0.195983	0	0.000124971
1860.23	-0.0532462	-0.195986	0	-4.68203e-05
1860.23	-0.0554989	-0.195982	0	-4.68203e-05
1860.24	-0.057866	-0.195982	0	4.86194e-05
1860.24	-0.0601187	-0.195982	0	4.86194e-05
1860.24	-0.0623522	-0.195982	0	-4.68203e-05
1860.24	-0.0645858	-0.195982	0	-6.59082e-05
1860.24	-0.0668575	-0.195981	0	0.000124971
1860.24	-0.069091	-0.195976	0	8.67952e-05
1860.25	-0.0715537	-0.195984	0	4.86194e-05
1860.25	-0.0738636	-0.195984	0	2.95314e-05
1860.25	-0.0759253	-0.195984	0	-6.59082e-05
1860.25	-0.0783688	-0.195986	0	4.86194e-05
1860.25	-0.0807551	-0.195982	0	6.77073e-05
1860.26	-0.0829505	-0.195977	0	-8.64441e-06
1860.26	-0.0850886	-0.195986	0	0.000105883
1860.26	-0.0874939	-0.195981	0	-2.77323e-05
1860.26	-0.0897275	-0.195979	0	-2.77323e-05
1860.27	-0.0918083	-0.195981	0	-8.64441e-06
1860.27	-0.09429	-0.195993	0	4.86194e-05
1860.27	-0.096619	-0.195988	0	4.86194e-05
1860.27	-0.0987762	-0.19598	0	1.04435e-05
1860.28	-0.100838	-0.195979	0	4.86194e-05
1860.28	-0.103033	-0.195981	0	4.86194e-05
1860.28	-0.105229	-0.195981	0	2.95314e-05
1860.28	-0.107309	-0.195981	0	-4.68203e-05
1860.29	-0.109409	-0.195977	0	4.86194e-05
1860.29	-0.111662	-0.195979	0	2.95314e-05
1860.29	-0.113915	-0.195983	0	-2.77323e-05
1860.3	-0.116015	-0.195986	0	1.04435e-05
1860.3	-0.118191	-0.195983	0	-0.000104084
1860.3	-0.120272	-0.195982	0	8.67952e-05
1860.31	-0.122333	-0.195984	0	1.04435e-05
1860.31	-0.124433	-0.195985	0	4.86194e-05
1860.31	-0.126476	-0.195981	0	0.000105883
1860.32	-0.128633	-0.195983	0	0.000144059
1860.32	-0.130905	-0.195983	0	8.67952e-05
1860.33	-0.133043	-0.195984	0	-2.77323e-05
1860.33	-0.135143	-0.195981	0	0.000124971
1860.34	-0.137281	-0.195982	0	8.67952e-05
1860.34	-0.1394	-0.195984	0	4.86194e-05
1860.35	-0.141519	-0.195989	0	0.000105883
1860.36	-0.1436	-0.195981	0	2.95314e-05
1860.36	-0.145776	-0.195983	0	4.86194e-05
1860.37	-0.147933	-0.195984	0	1.04435e-05
1860.38	-0.150014	-0.195983	0	-2.77323e-05
1860.39	-0.152209	-0.195986	0	-4.68203e-05
1860.4	-0.154252	-0.195988	0	6.77073e-05
1860.41	-0.156276	-0.195988	0	-4.68203e-05
1860.46	-0.154157	-0.195983	0	-4.68203e-05
1860.46	-0.152076	-0.195975	0	-6.59082e-05
1860.47	-0.149919	-0.195984	0	-6.59082e-05
1860.47	-0.147685	-0.195984	0	-8.64441e-06
1860.48	-0.14549	-0.195984	0	6.77073e-05
1860.48	-0.14339	-0.195981	0	2.95314e-05
1860.49	-0.141214	-0.195981	0	0.000105883
1860.49	-0.138885	-0.195988	0	-6.59082e-05
1860.5	-0.136651	-0.195977	0	6.77073e-05
1860.5	-0.134437	-0.195982	0	0.000105883
1860.5	-0.132318	-0.195989	0	4.86194e-05
1860.51	-0.129969	-0.195982	0	0.000124971
1860.51	-0.127545	-0.195986	0	0.000144059
1860.52	-0.125311	-0.195982	0	8.67952e-05
1860.52	-0.123135	-0.195986	0	2.95314e-05
1860.53	-0.120806	-0.195982	0	0.000124971
1860.53	-0.118725	-0.195987	0	6.77073e-05
1860.53	-0.116625	-0.195979	0	2.95314e-05
1860.54	-0.114526	-0.195982	0	2.95314e-05
1860.54	-0.112292	-0.195977	0	2.95314e-05
1860.55	-0.110154	-0.195989	0	2.95314e-05
1860.55	-0.108073	-0.195981	0	4.86194e-05
1860.56	-0.105973	-0.195984	0	8.67952e-05
1860.57	-0.103873	-0.195986	0	8.67952e-05
1860.57	-0.101697	-0.195988	0	-8.49961e-05
1860.58	-0.099578	-0.195982	0	-8.64441e-06
1860.59	-0.097459	-0.195983	0	-0.000161348
1860.59	-0.09534	-0.195984	0	6.77073e-05
1860.6	-0.0933164	-0.195988	0	0.000144059
1860.61	-0.0912165	-0.195988	0	2.95314e-05
1860.62	-0.0890975	-0.195982	0	-6.59082e-05
1860.64	-0.0869785	-0.195982	0	1.04435e-05
1860.65	-0.0848977	-0.195981	0	8.67952e-05
1860.67	-0.0828168	-0.195977	0	4.86194e-05
1860.69	-0.080736	-0.195985	0	-8.49961e-05
1860.72	-0.0786361	-0.195984	0	2.95314e-05
1860.75	-0.0765744	-0.195979	0	0.000105883
1860.81	-0.074379	-0.195983	0	2.95314e-05
1860.88	-0.0723554	-0.195988	0	0.000124971
1860.99	-0.0702555	-0.195981	0	1.04435e-05
1861.21	-0.068232	-0.195983	0	-8.49961e-05
1862	-0.0662084	-0.195981	0	2.95314e-05
1864.96	-0.0682702	-0.195988	0	0.000201323
1867.41	-0.0703128	-0.195986	0	-8.49961e-05
1870.23	-0.0723745	-0.195976	0	-4.68203e-05
1873.5	-0.0744363	-0.195983	0	6.77073e-05
1877.49	-0.0764789	-0.195979	0	0.000124971
1882.29	-0.0785025	-0.195982	0	4.86194e-05
1889.06	-0.080526	-0.19598	0	0.000124971
1896.21	-0.0819578	-0.195986	0	-8.64441e-06

File: 2024-06-27_S18_Icell_t1800_C0010_J01_deltaX-110,1mm_02_MB_C05.txt
time/s	Ewe/V	I/mA	error	Ece/V
60.053	2.80555	-0.0250213	0	-0.000717146
60.1736	0.00916716	-6.00087	0	-0.000160373
60.1748	0.00937715	-5.87608	0	-6.49344e-05
60.176	0.00933897	-5.73411	0	1.14163e-05
60.1772	0.00924352	-5.61443	0	3.05039e-05
60.1786	0.00931988	-5.47755	0	-6.49344e-05
60.1798	0.00931988	-5.36295	0	-6.49344e-05
60.181	0.00930079	-5.25345	0	1.14163e-05
60.1824	0.00939624	-5.13567	0	6.86792e-05
60.1838	0.00924352	-5.02363	0	-7.67139e-06
60.1854	0.00930079	-4.90076	0	-0.00010311
60.187	0.0092817	-4.77534	0	-0.000122197
60.1888	0.00926261	-4.66456	0	-4.58467e-05
60.1904	0.00930079	-4.55315	0	-8.4022e-05
60.1924	0.00930079	-4.43283	0	-4.58467e-05
60.1944	0.00930079	-4.32078	0	6.86792e-05
60.1964	0.00941533	-4.21191	0	-6.49344e-05
60.1986	0.00931988	-4.09732	0	-2.6759e-05
60.201	0.00922443	-3.98463	0	-0.000122197
60.2032	0.00924352	-3.87895	0	-6.49344e-05
60.2058	0.00930079	-3.76372	0	-0.000122197
60.209	0.00926261	-3.64531	0	-8.4022e-05
60.212	0.00939624	-3.52562	0	-4.58467e-05
60.2156	0.00935806	-3.40402	0	3.05039e-05
60.2192	0.00918625	-3.29006	0	-0.000122197
60.2226	0.00926261	-3.18565	0	-0.000141285
60.2262	0.00930079	-3.08252	0	-0.000141285
60.2306	0.00926261	-2.96856	0	-7.67139e-06
60.235	0.00933897	-2.86033	0	-7.67139e-06
60.2394	0.00933897	-2.75656	0	-0.000160373
60.2442	0.00924352	-2.65597	0	1.14163e-05
60.2494	0.00924352	-2.55156	0	-6.49344e-05
60.2552	0.00922443	-2.44716	0	-7.67139e-06
60.261	0.00941533	-2.34402	0	-0.000122197
60.2682	0.00933897	-2.23516	0	-0.00010311
60.273	0.0092817	-2.24283	0	1.14163e-05
60.3084	0.00930079	-1.79283	0	-6.49344e-05
60.32	0.00933897	-1.69005	0	-2.6759e-05
60.3328	0.00933897	-1.58917	0	-0.000141285
60.3478	0.00926261	-1.4867	0	-4.58467e-05
60.3642	0.0092817	-1.38626	0	3.05039e-05
60.3838	0.00922443	-1.28519	0	1.14163e-05
60.4066	0.00926261	-1.18419	0	3.05039e-05
60.4338	0.00939624	-1.08344	0	4.95916e-05
60.4664	0.00930079	-0.982877	0	4.95916e-05
60.5072	0.00935806	-0.882125	0	-7.67139e-06
60.5592	0.00922443	-0.781055	0	-8.4022e-05
60.6272	0.00926261	-0.680113	0	6.86792e-05
60.7198	0.00931988	-0.579298	0	-2.6759e-05
60.8528	0.00935806	-0.477782	0	1.14163e-05
61.0668	0.00931988	-0.377679	0	0.000125942
61.4274	0.00926261	-0.277537	0	-2.6759e-05
62.1914	0.00926261	-0.177394	0	-0.000122197
64.841	0.00920534	-0.0773528	0	-2.6759e-05
83.2832	0.00931988	-0.0152891	0	-6.49344e-05
103.283	0.0092817	-0.0079016	0	-7.67139e-06
123.283	0.0092817	-0.00527683	0	-0.00010311
143.283	0.00920534	-0.0039708	0	-6.49344e-05
163.283	0.00922443	-0.00320149	0	1.14163e-05
183.283	0.0092817	-0.00268463	0	0.000106855
203.283	0.0092817	-0.00235637	0	1.14163e-05
223.283	0.00926261	-0.00203492	0	1.14163e-05
243.283	0.00931988	-0.00182168	0	4.95916e-05
263.283	0.00941533	-0.00164466	0	-7.67139e-06
283.283	0.00916716	-0.00149183	0	-7.67139e-06
303.283	0.00930079	-0.00134759	0	-2.6759e-05
323.283	0.00920534	-0.00126535	0	8.77669e-05
343.283	0.00926261	-0.00124053	0	-2.6759e-05
363.283	0.0092817	-0.0011355	0	-7.67139e-06
383.283	0.00926261	-0.00107879	0	-0.000141285
403.283	0.00920534	-0.00102831	0	8.77669e-05
423.283	0.0092817	-0.000971339	0	6.86792e-05
443.283	0.00933897	-0.000881334	0	-7.67139e-06
463.283	0.0092817	-0.000841041	0	-6.49344e-05
483.283	0.00931988	-0.000795656	0	4.95916e-05
503.283	0.00933897	-0.00081087	0	-4.58467e-05
523.283	0.00924352	-0.000752882	0	-2.6759e-05
543.283	0.00935806	-0.000734995	0	4.95916e-05
563.283	0.00922443	-0.000730603	0	-7.67139e-06
583.283	0.00930079	-0.00066364	0	-7.67139e-06
603.283	0.0092817	-0.000676116	0	-8.4022e-05
623.283	0.00933897	-0.000600814	0	6.86792e-05
643.283	0.00922443	-0.000617173	0	-8.4022e-05
663.283	0.00926261	-0.000572998	0	-7.67139e-06
683.283	0.00912898	-0.000605334	0	-8.4022e-05
703.283	0.00931988	-0.000551738	0	-0.000141285
723.283	0.00935806	-0.000521566	0	1.14163e-05
743.283	0.00931988	-0.000512336	0	-2.6759e-05
763.283	0.00933897	-0.000506289	0	4.95916e-05
783.283	0.00931988	-0.000487257	0	-2.6759e-05
803.283	0.00933897	-0.000501897	0	-4.58467e-05
823.283	0.00935806	-0.000492986	0	-4.58467e-05
843.283	0.00922443	-0.000481656	0	6.86792e-05
863.283	0.00933897	-0.000469498	0	-0.00010311
883.283	0.00924352	-0.000441872	0	0.000125942
903.283	0.00922443	-0.000401516	0	8.77669e-05
923.283	0.00933897	-0.000432388	0	4.95916e-05
943.283	0.00930079	-0.000394769	0	1.14163e-05
963.283	0.00931988	-0.000383757	0	0.000164117
983.283	0.00926261	-0.000375227	0	-8.4022e-05
1003.28	0.0092817	-0.000362369	0	-0.000122197
1023.28	0.00930079	-0.000365679	0	6.86792e-05
1043.28	0.00922443	-0.000408072	0	-4.58467e-05
1063.28	0.00943442	-0.000361924	0	4.95916e-05
1083.28	0.00926261	-0.000403171	0	-7.67139e-06
1103.28	0.00926261	-0.000397251	0	-6.49344e-05
1123.28	0.00930079	-0.000343019	0	-4.58467e-05
1143.28	0.00914807	-0.000351676	0	-2.6759e-05
1163.28	0.0092817	-0.000316412	0	-0.000217636
1183.28	0.00931988	-0.00032857	0	4.95916e-05
1203.28	0.00918625	-0.000333471	0	-2.6759e-05
1223.28	0.00931988	-0.000325069	0	-6.49344e-05
1243.28	0.00926261	-0.000324305	0	1.14163e-05
1263.28	0.00922443	-0.000340664	0	-2.6759e-05
1283.28	0.00931988	-0.000296107	0	3.05039e-05
1303.28	0.00933897	-0.000305973	0	-8.4022e-05
1323.28	0.0092817	-0.000301072	0	-4.58467e-05
1343.28	0.00924352	-0.00030018	0	-0.000122197
1363.28	0.00930079	-0.000334171	0	4.95916e-05
1383.28	0.00916716	-0.000282739	0	8.77669e-05
1403.28	0.00926261	-0.000279939	0	-0.00010311
1423.28	0.00933897	-0.000316985	0	-0.000122197
1443.28	0.00933897	-0.000267781	0	-2.6759e-05
1463.28	0.00920534	-0.000258551	0	-2.6759e-05
1483.28	0.00924352	-0.000258551	0	-0.000122197
1503.28	0.00922443	-0.000274528	0	-0.000141285
1523.28	0.00926261	-0.000250149	0	-6.49344e-05
1543.28	0.00930079	-0.000274337	0	1.14163e-05
1563.28	0.00931988	-0.000251613	0	3.05039e-05
1583.28	0.00933897	-0.000236145	0	-0.000122197
1603.28	0.00920534	-0.000343719	0	-2.6759e-05
1623.28	0.0092817	-0.000278666	0	3.05039e-05
1643.28	0.00914807	-0.000267017	0	-7.67139e-06
1663.28	0.0092817	-0.000285413	0	0.000106855
1683.28	0.00926261	-0.000229271	0	-0.000141285
1703.28	0.0092817	-0.000265871	0	-7.67139e-06
1723.28	0.00930079	-0.000268672	0	-7.67139e-06
1743.28	0.0092817	-0.000301008	0	3.05039e-05
1763.28	0.00922443	-0.000258869	0	-0.000198548
1783.28	0.00931988	-0.000202664	0	-2.6759e-05
1803.28	0.00912898	-0.000222905	0	-7.67139e-06
1823.28	0.00930079	-0.000265808	0	-7.67139e-06
1843.28	0.00926261	-0.000237546	0	-0.00010311
1860.05	0.00926261	-0.000185859	0	-4.58467e-05