Folder: SUMMER-JOB-2024-MATERIALS-PHYSICS/EXPERIMENTAL/DATA/Electrochemical-cycling/S-series (part 3)

File: 2024-06-24_S11_TPcell_t1800_C0500_J01_02_MB_C10.txt
time/s	Ewe/V	I/mA	error
60.053	2.22898	-0.0250155	0
60.2182	0.00863056	-37.6819	0
60.3168	0.00863056	-27.9197	0
60.5668	0.00872602	-20.5322	0
60.682	0.00864965	-18.5251	0
60.8026	0.00861147	-17.5177	0
60.941	0.00859238	-16.076	0
61.036	0.00847783	-15.3001	0
61.2012	0.00864965	-14.6215	0
61.2718	0.00863056	-14.6107	0
61.3516	0.0085542	-13.6478	0
61.4502	0.00859238	-13.7617	0
61.5276	0.00870693	-12.8433	0
61.6052	0.00864965	-13.043	0
61.739	0.00870693	-11.9987	0
61.8252	0.00864965	-12.2334	0
61.9022	0.00870693	-11.9504	0
61.953	0.00857329	-11.8785	0
62.0242	0.00863056	-12.3282	0
62.076	0.00906966	-11.5192	0
62.1204	0.00845874	-11.6369	0
62.1624	0.00866874	-10.9837	0
62.2104	0.00872602	-10.702	0
62.3298	0.00849693	-10.2842	0
62.3842	0.00847783	-13.181	0
62.4392	0.00857329	-10.026	0
62.4918	0.00874511	-10.8037	0
62.5442	0.00868784	-10.4794	0
62.5976	0.00864965	-10.9392	0
62.6722	0.00857329	-10.2377	0
62.7282	0.00849693	-11.3259	0
62.7846	0.00863056	-10.3147	0
62.8338	0.0085542	-11.1936	0
62.8806	0.00863056	-9.5	0
62.9302	0.00824874	-10.1385	0
62.9896	0.00868784	-10.2822	0
63.0506	0.00861147	-8.96579	0
63.1036	0.00864965	-9.19156	0
63.1622	0.0085542	-9.60939	0
63.2156	0.00857329	-11.3507	0
63.277	0.00857329	-9.30985	0
63.328	0.00847783	-8.7362	0
63.3834	0.00859238	-9.44277	0
63.447	0.00868784	-10.9398	0
63.5144	0.0087642	-10.0444	0
63.571	0.00866874	-8.95625	0
63.6224	0.00863056	-9.82944	0
63.6784	0.00882147	-7.99529	0
63.7334	0.00851602	-8.04045	0
63.7802	0.00872602	-8.51107	0
63.8404	0.00872602	-10.1449	0
63.8884	0.00929875	-10.5087	0
63.9398	0.00838238	-8.60137	0
63.9884	0.0085542	-8.32981	0
64.0548	0.0085542	-8.72602	0
64.132	0.00853511	-7.84139	0
64.1784	0.00849693	-8.84241	0
64.2224	0.00845874	-8.78453	0
64.2736	0.00866874	-9.72323	0
64.3162	0.00870693	-11.4957	0
64.3598	0.00842056	-8.03599	0
64.405	0.00861147	-8.37815	0
64.4662	0.00859238	-8.20771	0
64.5178	0.00859238	-9.41923	0
64.5708	0.00822965	-10.1392	0
64.6162	0.00861147	-8.54477	0
64.656	0.00853511	-9.00649	0
64.6942	0.00866874	-8.28402	0
64.7384	0.00849693	-8.74638	0
64.779	0.00864965	-9.05546	0
64.8176	0.00861147	-7.79114	0
64.8768	0.00891693	-7.56029	0
64.9214	0.00885966	-8.76546	0
64.9614	0.00866874	-6.96438	0
65.0042	0.00851602	-9.58968	0
65.0454	0.00861147	-6.93131	0
65.0904	0.00857329	-7.50941	0
65.132	0.00849693	-10.4788	0
65.17	0.00843965	-7.85347	0
65.2146	0.00887875	-6.96883	0
65.2608	0.0085542	-7.48969	0
65.3128	0.00884056	-9.0898	0
65.3508	0.00872602	-7.99529	0
65.3926	0.00882147	-6.68773	0
65.4322	0.00851602	-7.91007	0
65.4814	0.00868784	-11.0047	0
65.5204	0.00868784	-10.8241	0
65.5594	0.00870693	-7.60735	0
65.6056	0.00849693	-9.37344	0
65.644	0.0085542	-8.24205	0
65.6952	0.00861147	-8.0697	0
65.7432	0.00874511	-8.37242	0
65.7814	0.00853511	-8.37052	0
65.827	0.00864965	-8.38451	0
65.875	0.00853511	-7.7479	0
65.9198	0.00828693	-7.18952	0
65.9616	0.00870693	-6.06575	0
66.0034	0.0085542	-7.72373	0
66.0462	0.00851602	-8.95752	0
66.0918	0.00853511	-8.75401	0
66.1318	0.00878329	-6.22538	0
66.1702	0.00840147	-7.24039	0
66.2108	0.00864965	-6.64512	0
66.2484	0.00861147	-8.10913	0
66.2892	0.00870693	-8.36988	0
66.3378	0.00872602	-7.38031	0
66.3804	0.00861147	-7.71419	0
66.4308	0.00870693	-9.57568	0
66.4798	0.00864965	-10.7427	0
66.5324	0.00872602	-9.16039	0
66.5732	0.00857329	-7.37776	0
66.6128	0.00838238	-6.95484	0
66.6644	0.00866874	-9.43704	0
66.7114	0.0083442	-6.25146	0
66.7504	0.00878329	-9.82753	0
66.7946	0.0085542	-6.25654	0
66.8354	0.00845874	-9.42496	0
66.879	0.00832511	-6.88934	0
66.924	0.00895511	-5.86415	0
66.967	0.00872602	-6.0454	0
67.0108	0.00828693	-8.02009	0
67.0492	0.00864965	-9.10761	0
67.085	0.00874511	-12.5679	0
67.1216	0.00864965	-7.0178	0
67.1618	0.00874511	-5.89595	0
67.2116	0.00853511	-7.66713	0
67.2524	0.00849693	-8.75337	0
67.29	0.00819147	-8.84877	0
67.3286	0.00889784	-8.33999	0
67.3732	0.00847783	-11.8518	0
67.4106	0.00880238	-8.89519	0
67.4474	0.00828693	-7.17362	0
67.489	0.00853511	-5.6988	0
67.5334	0.00851602	-5.59068	0
67.5858	0.00922238	-5.66827	0
67.6284	0.00861147	-11.495	0
67.6744	0.00910784	-8.25413	0
67.714	0.00859238	-8.22361	0
67.7524	0.00849693	-6.87026	0
67.7906	0.00840147	-11.2706	0
67.8376	0.00882147	-7.18443	0
67.8774	0.00864965	-6.29216	0
67.9262	0.00864965	-5.44631	0
68.0096	0.00853511	-5.2975	0
68.1094	0.00857329	-8.54732	0
68.19	0.00843965	-9.0421	0
68.2922	0.00859238	-5.59259	0
68.3776	0.00872602	-8.80107	0
68.4766	0.00878329	-6.85436	0
68.5686	0.00859238	-6.52302	0
68.6702	0.0091842	-8.31455	0
68.7516	0.00857329	-5.43232	0
68.8542	0.0089742	-14.846	0
68.9572	0.00798147	-13.8138	0
69.0382	0.00882147	-5.78974	0
69.1414	0.00763783	-10.9004	0
69.222	0.00815329	-5.43423	0
69.327	0.00861147	-7.71356	0
69.4098	0.00863056	-5.13342	0
69.5106	0.00857329	-7.02162	0
69.601	0.00828693	-13.4278	0
69.7032	0.00822965	-10.4419	0
69.7854	0.0085542	-8.44747	0
69.8902	0.00866874	-7.53612	0
69.972	0.00861147	-7.62897	0
70.0782	0.00853511	-5.77448	0
70.1796	0.00872602	-6.07974	0
70.2598	0.00872602	-5.39098	0
70.3628	0.00815329	-7.09539	0
70.4452	0.00872602	-12.849	0
70.5544	0.00866874	-9.91847	0
70.6354	0.00847783	-11.109	0
70.739	0.00780965	-7.42355	0
70.8196	0.00885966	-9.40461	0
70.9242	0.00922238	-8.70313	0
71.0058	0.00843965	-6.27053	0
71.1082	0.00874511	-13.5193	0
71.1894	0.00872602	-8.48054	0
71.2942	0.00851602	-13.4144	0
71.396	0.00912693	-7.65632	0
71.4766	0.00832511	-9.49174	0
71.5884	0.00872602	-5.11815	0
71.6676	0.00842056	-13.5651	0
71.7712	0.00878329	-8.13266	0
71.851	0.00857329	-5.08508	0
71.9556	0.00861147	-9.05291	0
72.0354	0.00868784	-8.40104	0
72.1392	0.00868784	-19.7061	0
72.221	0.0087642	-8.85131	0
72.3256	0.0110551	-12.2792	0
72.4292	0.00811511	-12.0261	0
72.5098	0.00851602	-12.7638	0
72.62	0.00851602	-5.48956	0
72.7	0.00878329	-13.5537	0
72.8046	0.00758056	-11.1408	0
72.8854	0.0083442	-13.2599	0
72.9884	0.00851602	-8.67387	0
73.0724	0.00882147	-15.791	0
73.174	0.00845874	-10.8635	0
73.2528	0.00857329	-7.07695	0
73.3562	0.00838238	-19.3678	0
73.4382	0.00836329	-11.5364	0
73.5414	0.00864965	-16.3456	0
73.652	0.00819147	-20.3014	0
73.7326	0.00880238	-9.41351	0
73.8368	0.00840147	-9.99034	0
73.9174	0.00853511	-17.463	0
74.0214	0.00941329	-13.8481	0
74.1022	0.00811511	-16.4906	0
74.2056	0.00817238	-30.5978	0
74.2858	0.00838238	-22.8885	0
74.3906	0.010196	-19.224	0
74.47	0.0081342	-24.991	0
74.5752	0.00996693	-23.9843	0
74.6548	0.00927966	-29.4498	0
74.767	0.00872602	-41.9683	0
74.8716	0.00924148	-49.5962	0
74.9522	0.00889784	-38.3185	0
75.0554	0.00843965	-43.5843	0
75.1358	0.0081342	-45.215	0
75.2392	0.00819147	-50.0509	0
75.3202	0.00947057	-48.8934	0
75.4238	0.00864965	-55.1228	0
75.505	0.00857329	-77.8435	0
75.6092	0.00815329	-70.8224	0
75.6978	0.0089742	-79.1988	0
75.8002	0.00853511	-79.9324	0
75.881	0.00887875	-72.4499	0
75.985	0.00863056	-62.5115	0
76.089	0.00847783	-65.4192	0
76.1696	0.00849693	-68.1806	0
76.273	0.00866874	-82.2548	0
76.3528	0.00863056	-105.37	0
76.4568	0.00826783	-89.101	0
76.536	0.00830602	-109.519	0
76.6412	0.00863056	-119.661	0
76.729	0.0085542	-122.091	0
76.8334	0.00853511	-111.008	0
76.9134	0.00880238	-157.69	0
77.0184	0.00851602	-161.769	0
77.0982	0.00880238	-149.82	0
77.2006	0.00868784	-142.216	0
77.3036	0.00843965	-149.069	0
77.3828	0.00885966	-140.11	0
77.4874	0.00857329	-156.539	0
77.5678	0.0087642	-169.213	0
77.6708	0.00863056	-204.596	0
77.7592	0.0089742	-176.479	0
77.8644	0.00870693	-191.113	0
77.9436	0.00866874	-206.085	0
78.0476	0.00878329	-219.37	0
78.1282	0.00863056	-213.491	0
78.2332	0.0087642	-240.379	0
78.3366	0.00874511	-223.105	0
78.4172	0.00870693	-250.967	0
78.5216	0.00849693	-248.135	0
78.6018	0.00845874	-245.158	0
78.706	0.00866874	-263.851	0
78.794	0.00868784	-268.006	0
78.8984	0.00872602	-272.04	0
78.9786	0.00849693	-258.379	0
79.0826	0.00859238	-281.17	0
79.1634	0.00859238	-300.894	0
79.2678	0.00845874	-297.077	0
79.3482	0.00853511	-284.498	0
79.452	0.0087642	-289.219	0
79.5556	0.00868784	-310.903	0
79.6358	0.00889784	-317.291	0
79.7398	0.00872602	-329.698	0
79.8274	0.0083442	-332.339	0
79.931	0.00859238	-320.11	0
80.0126	0.00847783	-344.962	0
80.1152	0.00826783	-329.698	0
80.1946	0.00851602	-347.113	0
80.299	0.00849693	-371.94	0
80.3784	0.00884056	-364.903	0
80.4828	0.00859238	-377.494	0
80.5626	0.00889784	-375.306	0
80.6674	0.00849693	-388.533	0
80.771	0.00878329	-404.555	0
80.8582	0.00853511	-397.524	0
80.9622	0.00864965	-416.866	0
81.043	0.00864965	-411.942	0
81.146	0.00842056	-419.176	0
81.226	0.00882147	-426.69	0
81.3308	0.00861147	-434.574	0
81.4118	0.00843965	-435.662	0
81.5148	0.00863056	-433.581	0
81.5956	0.00868784	-448.088	0
81.6998	0.00868784	-468.385	0
81.7802	0.00857329	-472.196	0
81.8906	0.00878329	-477.401	0
81.9954	0.00851602	-507.916	0
82.0756	0.0087642	-507.458	0
82.1788	0.00853511	-522.836	0
82.2588	0.00872602	-520.686	0
82.3626	0.00840147	-545.029	0
82.4432	0.00830602	-557.137	0
82.5464	0.00884056	-566.07	0
82.5552	0.00836329	-573.139	1

File: 2024-06-25_S13_Icell_t0030_C0010_J01_deltaX-110,3mm_02_MB_C06.txt
time/s	Ewe/V	I/mA	error
60.053	2.86488	-0.0250234	0
60.1432	0.00937036	-6.77601	0
60.1436	0.00923672	-6.70676	0
60.144	0.0092749	-6.63935	0
60.1444	0.00935127	-6.57373	0
60.1448	0.00933218	-6.50912	0
60.1452	0.00935127	-6.44585	0
60.1456	0.0092749	-6.38468	0
60.146	0.00931308	-6.32485	0
60.1464	0.00937036	-6.2661	0
60.1468	0.00937036	-6.20888	0
60.1472	0.00935127	-6.15344	0
60.1476	0.00929399	-6.0987	0
60.148	0.00931308	-6.04542	0
60.1484	0.00937036	-5.99284	0
60.1488	0.00935127	-5.9416	0
60.1494	0.00933218	-5.8679	0
60.15	0.00942764	-5.79508	0
60.1506	0.00940854	-5.72506	0
60.1512	0.00929399	-5.6574	0
60.1518	0.00931308	-5.59171	0
60.1524	0.00944673	-5.52729	0
60.153	0.00931308	-5.46587	0
60.1536	0.00929399	-5.40553	0
60.1542	0.00944673	-5.3478	0
60.1548	0.0092749	-5.29146	0
60.1554	0.00937036	-5.23583	0
60.156	0.00929399	-5.18249	0
60.1566	0.00944673	-5.12998	0
60.1572	0.00931308	-5.07925	0
60.158	0.00940854	-5.01369	0
60.1588	0.00935127	-4.95055	0
60.1596	0.00946582	-4.889	0
60.1604	0.00940854	-4.82916	0
60.1612	0.00940854	-4.7713	0
60.162	0.00940854	-4.71567	0
60.1628	0.00933218	-4.66169	0
60.1636	0.00933218	-4.60944	0
60.1644	0.00931308	-4.55832	0
60.1654	0.00931308	-4.49652	0
60.1664	0.00931308	-4.43764	0
60.1674	0.00935127	-4.37946	0
60.1684	0.00933218	-4.32307	0
60.1694	0.00935127	-4.26915	0
60.1704	0.00929399	-4.21792	0
60.1714	0.00935127	-4.16578	0
60.1726	0.00935127	-4.10786	0
60.1738	0.00940854	-4.05089	0
60.175	0.00933218	-3.99596	0
60.1762	0.00942764	-3.94256	0
60.1774	0.00944673	-3.89055	0
60.1786	0.00933218	-3.84052	0
60.18	0.00938945	-3.78464	0
60.1814	0.00933218	-3.72964	0
60.1828	0.009504	-3.67694	0
60.1842	0.00929399	-3.62634	0
60.1856	0.00931308	-3.57586	0
60.1872	0.00940854	-3.52099	0
60.1888	0.00942764	-3.46702	0
60.1906	0.00937036	-3.41068	0
60.1924	0.00938945	-3.35454	0
60.1942	0.00935127	-3.30108	0
60.196	0.00937036	-3.2492	0
60.1978	0.00935127	-3.19891	0
60.1998	0.00937036	-3.14583	0
60.2018	0.00933218	-3.09351	0
60.2038	0.009504	-3.04208	0
60.206	0.00946582	-2.98937	0
60.2082	0.00931308	-2.93833	0
60.2106	0.00933218	-2.88358	0
60.213	0.00944673	-2.83196	0
60.2156	0.00933218	-2.77767	0
60.2182	0.00937036	-2.72458	0
60.2208	0.00940854	-2.67455	0
60.2236	0.00948491	-2.62299	0
60.2264	0.00937036	-2.57271	0
60.2294	0.00944673	-2.51943	0
60.2326	0.00942764	-2.46768	0
60.2358	0.00938945	-2.4167	0
60.2392	0.00940854	-2.36463	0
60.2428	0.00946582	-2.31174	0
60.2464	0.00938945	-2.26056	0
60.2504	0.00946582	-2.20818	0
60.2544	0.00935127	-2.15592	0
60.2586	0.00940854	-2.10563	0
60.263	0.00935127	-2.05408	0
60.2676	0.00938945	-2.00334	0
60.2724	0.00940854	-1.95306	0
60.2774	0.00940854	-1.90246	0
60.2828	0.00938945	-1.85115	0
60.2884	0.00925581	-1.80004	0
60.2944	0.00942764	-1.74817	0
60.3006	0.00931308	-1.69788	0
60.3072	0.00937036	-1.64779	0
60.3142	0.00931308	-1.59712	0
60.3216	0.00938945	-1.54633	0
60.3296	0.00929399	-1.4954	0
60.338	0.00940854	-1.44512	0
60.347	0.00935127	-1.39426	0
60.3568	0.00946582	-1.34226	0
60.3672	0.00937036	-1.29191	0
60.3782	0.00946582	-1.24182	0
60.39	0.00938945	-1.19147	0
60.403	0.00938945	-1.14048	0
60.417	0.00937036	-1.09026	0
60.4318	0.00929399	-1.04023	0
60.4488	0.00942764	-0.989883	0
60.4672	0.00937036	-0.939089	0
60.4874	0.00937036	-0.889058	0
60.5104	0.00940854	-0.838455	0
60.5358	0.0095231	-0.787661	0
60.5648	0.00940854	-0.737631	0
60.598	0.00948491	-0.687473	0
60.6356	0.00933218	-0.637061	0
60.6798	0.00942764	-0.58684	0
60.7322	0.00931308	-0.53681	0
60.7938	0.00948491	-0.486398	0
60.8702	0.00938945	-0.436176	0
60.9746	0.00935127	-0.384807	0
61.0982	0.009504	-0.334789	0
61.2646	0.00940854	-0.284568	0
61.5014	0.00938945	-0.234245	0
61.8662	0.00931308	-0.184144	0
62.5004	0.00937036	-0.134107	0
63.911	0.00942764	-0.0840642	0
69.7174	0.00942764	-0.0340593	0
79.7174	0.00933218	-0.0174819	0
89.7174	0.00938945	-0.0120647	0
99.7174	0.00929399	-0.00936181	0
109.717	0.00937036	-0.00789075	0
119.717	0.00931308	-0.00675755	0
120.053	0.00938945	-0.00673146	0

File: 2024-06-25_S13_Icell_t0030_C0010_J01_deltaX-110,3mm_04_CP_C06.txt
time/s	Ewe/V	I/mA	error
120.206	0.0124423	-0.194791	0
120.206	0.00955546	-0.195987	0
120.206	0.00747977	-0.195989	0
120.206	0.0062388	-0.195987	0
120.207	0.00501692	-0.195989	0
120.207	0.00390959	-0.195989	0
120.207	0.00179038	-0.195992	0
120.208	-4.24375e-05	-0.195987	0
120.208	-0.00181798	-0.195994	0
120.208	-0.00292531	-0.195989	0
120.209	-0.00479632	-0.195992	0
120.209	-0.00634276	-0.195993	0
120.209	-0.00804194	-0.195996	0
120.21	-0.00974112	-0.195991	0
120.21	-0.0113639	-0.19599	0
120.211	-0.0128722	-0.195992	0
120.211	-0.0145332	-0.195989	0
120.211	-0.0160033	-0.195986	0
120.212	-0.017607	-0.195987	0
120.212	-0.0190198	-0.195997	0
120.213	-0.0204326	-0.19599	0
120.213	-0.0220172	-0.195993	0
120.213	-0.02322	-0.195985	0
120.214	-0.024671	-0.19599	0
120.214	-0.0261411	-0.195992	0
120.215	-0.0275157	-0.195989	0
120.215	-0.0287376	-0.195992	0
120.215	-0.0300358	-0.195992	0
120.216	-0.0313913	-0.195991	0
120.216	-0.0327659	-0.195993	0
120.217	-0.0340451	-0.195994	0
120.217	-0.035267	-0.195992	0
120.217	-0.0362979	-0.195988	0
120.218	-0.0376535	-0.19599	0
120.218	-0.0389135	-0.195986	0
120.219	-0.04004	-0.195992	0
120.219	-0.0414146	-0.195993	0
120.219	-0.0424646	-0.195989	0
120.22	-0.043572	-0.195991	0
120.22	-0.0447747	-0.195985	0
120.221	-0.0457866	-0.19599	0
120.221	-0.0470085	-0.195996	0
120.221	-0.0481349	-0.195998	0
120.222	-0.0492995	-0.195988	0
120.222	-0.0503496	-0.19599	0
120.223	-0.0518578	-0.195988	0
120.223	-0.0529461	-0.195997	0
120.224	-0.0545116	-0.195988	0
120.224	-0.0555426	-0.195989	0
120.225	-0.0569172	-0.195994	0
120.225	-0.0580436	-0.195988	0
120.226	-0.0590555	-0.19599	0
120.226	-0.0605256	-0.195994	0
120.227	-0.0619193	-0.195995	0
120.227	-0.0629693	-0.195989	0
120.228	-0.0643058	-0.195996	0
120.228	-0.0656231	-0.195989	0
120.229	-0.0670741	-0.195992	0
120.23	-0.0683723	-0.195989	0
120.23	-0.0696897	-0.195994	0
120.231	-0.0708925	-0.195987	0
120.231	-0.0721716	-0.195989	0
120.232	-0.0735462	-0.195998	0
120.233	-0.0746536	-0.195991	0
120.233	-0.0758754	-0.195996	0
120.234	-0.0770782	-0.195988	0
120.234	-0.0783192	-0.195987	0
120.235	-0.0795029	-0.195994	0
120.236	-0.0805721	-0.195992	0
120.236	-0.0816794	-0.195996	0
120.237	-0.0828822	-0.195989	0
120.238	-0.0841995	-0.195992	0
120.238	-0.0852496	-0.19599	0
120.239	-0.0866242	-0.195997	0
120.24	-0.0880179	-0.195991	0
120.241	-0.0893734	-0.19599	0
120.241	-0.0906717	-0.195992	0
120.242	-0.0917217	-0.19599	0
120.243	-0.0929627	-0.195994	0
120.244	-0.0941273	-0.195992	0
120.244	-0.0952155	-0.195991	0
120.245	-0.0962274	-0.195992	0
120.246	-0.0972584	-0.195996	0
120.246	-0.0983275	-0.195994	0
120.247	-0.0994348	-0.195992	0
120.248	-0.100599	-0.195987	0
120.249	-0.101707	-0.195992	0
120.25	-0.103005	-0.195995	0
120.251	-0.10417	-0.195999	0
120.252	-0.105201	-0.195994	0
120.252	-0.106289	-0.195994	0
120.253	-0.107587	-0.196	0
120.254	-0.108733	-0.195988	0
120.255	-0.109764	-0.195996	0
120.256	-0.111062	-0.195993	0
120.257	-0.112093	-0.195987	0
120.258	-0.113143	-0.195988	0
120.259	-0.114269	-0.195993	0
120.261	-0.11551	-0.19599	0
120.262	-0.116522	-0.195998	0
120.263	-0.117591	-0.195992	0
120.264	-0.118603	-0.195993	0
120.265	-0.11973	-0.19599	0
120.266	-0.12078	-0.195991	0
120.267	-0.121887	-0.195998	0
120.269	-0.122994	-0.19599	0
120.27	-0.124063	-0.195998	0
120.271	-0.125075	-0.195989	0
120.273	-0.126259	-0.19599	0
120.274	-0.127271	-0.195989	0
120.275	-0.12834	-0.195999	0
120.277	-0.129371	-0.195993	0
120.278	-0.130478	-0.195989	0
120.28	-0.131528	-0.195995	0
120.281	-0.132617	-0.195993	0
120.283	-0.133628	-0.195996	0
120.284	-0.134659	-0.195989	0
120.286	-0.135729	-0.195999	0
120.288	-0.136893	-0.195991	0
120.29	-0.137981	-0.195994	0
120.292	-0.139127	-0.19599	0
120.294	-0.140196	-0.195991	0
120.296	-0.141361	-0.19599	0
120.299	-0.142583	-0.195988	0
120.302	-0.143594	-0.195993	0
120.304	-0.144664	-0.195996	0
120.306	-0.145714	-0.195997	0
120.31	-0.146878	-0.19599	0
120.313	-0.14789	-0.195989	0
120.317	-0.148902	-0.195998	0
120.322	-0.14999	-0.195992	0
120.343	-0.14894	-0.195996	0
120.348	-0.147909	-0.19599	0
120.352	-0.146783	-0.195994	0
120.355	-0.145771	-0.195991	0
120.358	-0.14474	-0.195992	0
120.361	-0.14369	-0.195994	0
120.364	-0.14264	-0.195992	0
120.366	-0.14159	-0.195996	0
120.369	-0.140482	-0.195994	0
120.372	-0.139471	-0.195992	0
120.374	-0.138401	-0.195994	0
120.377	-0.137313	-0.195993	0
120.379	-0.136263	-0.195996	0
120.382	-0.135213	-0.195992	0
120.385	-0.134087	-0.195997	0
120.387	-0.133037	-0.195992	0
120.39	-0.131872	-0.195997	0
120.393	-0.130707	-0.195987	0
120.396	-0.129657	-0.195986	0
120.398	-0.128645	-0.19599	0
120.401	-0.127634	-0.195993	0
120.404	-0.126526	-0.195992	0
120.407	-0.125476	-0.195992	0
120.41	-0.12435	-0.195994	0
120.414	-0.123185	-0.195992	0
120.417	-0.122154	-0.195994	0
120.421	-0.121104	-0.195989	0
120.424	-0.120054	-0.195994	0
120.428	-0.118909	-0.195998	0
120.432	-0.117878	-0.195989	0
120.436	-0.11677	-0.195996	0
120.441	-0.11572	-0.195994	0
120.445	-0.114613	-0.195995	0
120.45	-0.113582	-0.195991	0
120.455	-0.112551	-0.195996	0
120.46	-0.11152	-0.19599	0
120.466	-0.110432	-0.195996	0
120.472	-0.109305	-0.195992	0
120.479	-0.108179	-0.195996	0
120.486	-0.107072	-0.19599	0
120.494	-0.106041	-0.195996	0
120.502	-0.10501	-0.195993	0
120.511	-0.103998	-0.195997	0
120.52	-0.102948	-0.195995	0
120.531	-0.101898	-0.195992	0
120.542	-0.100886	-0.195995	0
120.554	-0.0997785	-0.195989	0
120.569	-0.0987666	-0.195996	0
120.585	-0.0977357	-0.195992	0
120.601	-0.0967238	-0.19599	0
120.62	-0.0956547	-0.195988	0
120.644	-0.0946428	-0.19599	0
120.668	-0.0935927	-0.195992	0
120.697	-0.0925236	-0.195992	0
120.732	-0.0915117	-0.195998	0
120.772	-0.0904998	-0.195992	0
120.816	-0.089488	-0.19599	0
120.873	-0.0884761	-0.195993	0
120.945	-0.0874451	-0.195997	0
121.031	-0.0864142	-0.195997	0
121.132	-0.0853832	-0.195994	0
121.306	-0.0843713	-0.195994	0
121.555	-0.0833404	-0.195997	0
122.057	-0.0823285	-0.195989	0
125.555	-0.0833977	-0.195995	0
127.266	-0.0844286	-0.195997	0
129.01	-0.0854596	-0.195988	0
130.734	-0.0864714	-0.195994	0
132.579	-0.0874833	-0.195992	0
134.579	-0.0884952	-0.195995	0
136.872	-0.0895262	-0.195991	0
139.383	-0.0905571	-0.195992	0
142.227	-0.0915881	-0.195992	0
145.951	-0.0926381	-0.195992	0
150.33	-0.0936691	-0.196001	0
155.819	-0.094681	-0.195997	0
156.206	-0.0945855	-0.195997	0

File: 2024-06-25_S14_Icell_t1800_C0003_J01_deltaX-110,2mm_02_MB_C03.txt
time/s	Ewe/V	I/mA	error
60.053	2.93796	-0.0250202	0
60.1434	0.00923816	-7.426	0
60.1442	0.00929542	-7.22705	0
60.145	0.00927633	-7.03885	0
60.1458	0.00912363	-6.85886	0
60.1466	0.00916181	-6.68758	0
60.1474	0.00919998	-6.52446	0
60.1482	0.00923816	-6.36813	0
60.149	0.00923816	-6.21913	0
60.1498	0.00925724	-6.07782	0
60.1506	0.0091809	-5.94249	0
60.1514	0.00927633	-5.8141	0
60.1522	0.00916181	-5.69054	0
60.153	0.0091809	-5.57284	0
60.1538	0.00923816	-5.45985	0
60.1546	0.00908546	-5.35226	0
60.1554	0.00919998	-5.24944	0
60.1566	0.00929542	-5.10279	0
60.1578	0.00929542	-4.96524	0
60.159	0.00916181	-4.83685	0
60.1602	0.00929542	-4.71628	0
60.1614	0.00923816	-4.60367	0
60.1626	0.00925724	-4.49614	0
60.164	0.00912363	-4.38016	0
60.1656	0.00929542	-4.25628	0
60.1672	0.00927633	-4.14112	0
60.1688	0.00929542	-4.03449	0
60.1706	0.00931451	-3.92423	0
60.1726	0.00940994	-3.81035	0
60.1746	0.00931451	-3.70505	0
60.177	0.00931451	-3.59008	0
60.1794	0.00929542	-3.48498	0
60.1822	0.00931451	-3.37274	0
60.185	0.00929542	-3.27158	0
60.1882	0.00925724	-3.16584	0
60.1918	0.00931451	-3.05755	0
60.1958	0.00923816	-2.9494	0
60.2	0.00923816	-2.84563	0
60.2046	0.00929542	-2.74287	0
60.2096	0.00937177	-2.64031	0
60.215	0.00927633	-2.53877	0
60.221	0.00923816	-2.43634	0
60.2276	0.00923816	-2.33295	0
60.2348	0.00931451	-2.22994	0
60.2428	0.00923816	-2.12649	0
60.2514	0.00927633	-2.02387	0
60.2608	0.00923816	-1.92251	0
60.2714	0.00935268	-1.81887	0
60.283	0.00937177	-1.71568	0
60.2956	0.00942903	-1.61521	0
60.3098	0.00929542	-1.51501	0
60.3258	0.00929542	-1.41359	0
60.344	0.00923816	-1.31281	0
60.365	0.00931451	-1.21063	0
60.3894	0.00933359	-1.10973	0
60.418	0.00931451	-1.00914	0
60.4526	0.00933359	-0.908231	0
60.4954	0.00933359	-0.806879	0
60.549	0.00942903	-0.7068	0
60.619	0.00931451	-0.605766	0
60.7138	0.00939085	-0.505686	0
60.8744	0.00939085	-0.394259	0
61.1062	0.00931451	-0.29408	0
61.5488	0.00937177	-0.194034	0
62.83	0.00944812	-0.0939625	0
75.3402	0.00937177	-0.0125732	0
95.3402	0.00933359	-0.00478983	0
115.34	0.00921907	-0.00304936	0
135.34	0.00931451	-0.00225264	0
155.34	0.00933359	-0.00185485	0
175.34	0.00931451	-0.00155298	0
195.34	0.00935268	-0.00137209	0
215.34	0.00925724	-0.00120591	0
235.34	0.00931451	-0.00113253	0
255.34	0.00937177	-0.00101873	0
275.34	0.00927633	-0.000977741	0
295.34	0.00933359	-0.000881126	0
315.34	0.0091809	-0.000893919	0
335.34	0.00931451	-0.000781583	0
355.34	0.00937177	-0.00074486	0
375.34	0.00937177	-0.000691269	0
395.34	0.00931451	-0.000707308	0
415.34	0.00929542	-0.000625332	0
435.34	0.00929542	-0.000634179	0
455.34	0.00933359	-0.000626923	0
475.34	0.00921907	-0.000571869	0
495.34	0.00931451	-0.000556149	0
515.34	0.00933359	-0.000556594	0
535.34	0.00937177	-0.000540301	0
555.34	0.00927633	-0.000494921	0
575.34	0.00935268	-0.000458643	0
595.34	0.00933359	-0.000454442	0
615.34	0.00927633	-0.000471817	0
635.34	0.00939085	-0.000731876	0
655.34	0.00939085	-0.00042892	0
675.34	0.00940994	-0.000422492	0
695.34	0.00921907	-0.000446677	0
715.34	0.00931451	-0.000435603	0
735.34	0.00921907	-0.00042701	0
755.34	0.00937177	-0.000379785	0
775.34	0.00933359	-0.000382331	0
795.34	0.00931451	-0.000383731	0
815.34	0.00933359	-0.000377239	0
835.34	0.00929542	-0.000361009	0
855.34	0.00944812	-0.000330141	0
875.34	0.00940994	-0.000324922	0
895.34	0.00937177	-0.000364383	0
915.34	0.00935268	-0.000343316	0
935.34	0.00933359	-0.000331668	0
955.34	0.00931451	-0.000529035	0
975.34	0.00931451	-0.000359164	0
995.34	0.00931451	-0.000305382	0
1015.34	0.00931451	-0.000290235	0
1035.34	0.00927633	-0.000303664	0
1055.34	0.00935268	-0.000300418	0
1075.34	0.00933359	-0.000311811	0
1095.34	0.00935268	-0.000326258	0
1115.34	0.00933359	-0.000267067	0
1135.34	0.00929542	-0.000268722	0
1155.34	0.00937177	-0.000248292	0
1175.34	0.00927633	-0.000241927	0
1195.34	0.00927633	-0.000240336	0
1215.34	0.00939085	-0.000225316	0
1235.34	0.00937177	-0.000253065	0
1255.34	0.00927633	-0.000259875	0
1275.34	0.00937177	-0.000239381	0
1295.34	0.00929542	-0.000210995	0
1315.34	0.00919998	-0.000231553	0
1335.34	0.00933359	-0.000249119	0
1355.34	0.00935268	-0.000232062	0
1375.34	0.0091809	-0.000239954	0
1395.34	0.00935268	-0.000214687	0
1415.34	0.00931451	-0.000234608	0
1435.34	0.00939085	-0.0002453	0
1455.34	0.00931451	-0.000171535	0
1475.34	0.00929542	-0.000229071	0
1495.34	0.00935268	-0.000195656	0
1515.34	0.00935268	-0.000222388	0
1535.34	0.00935268	-0.000205458	0
1555.34	0.00933359	-0.000162369	0
1575.34	0.00937177	-0.000165488	0
1595.34	0.00919998	-0.000196484	0
1615.34	0.00927633	-0.000210422	0
1635.34	0.00923816	-0.000180954	0
1655.34	0.00925724	-0.000185982	0
1675.34	0.00939085	-0.000184327	0
1695.34	0.00933359	-0.000183373	0
1715.34	0.00939085	-0.00015155	0
1735.34	0.00927633	-0.000174526	0
1755.34	0.00939085	-0.00015155	0
1775.34	0.00931451	-0.000143976	0
1795.34	0.00931451	-0.000160651	0
1815.34	0.00929542	-0.000160842	0
1835.34	0.00939085	-0.000183946	0
1855.34	0.00923816	-0.000178727	0
1860.05	0.00929542	-0.000131246	0