Folder: SUMMER-JOB-2024-MATERIALS-PHYSICS/EXPERIMENTAL/DATA/Electrochemical-cycling/S-series (part 6)

File: 2024-07-02_S20_Icell_t1800_C0010_J01_deltaX-110,2mm_plating-stripping_05_MB_C02.txt
time/s	Ewe/V	I/mA	error
1896.36	-0.0653749	0.194641	0	0
1896.58	-0.0202186	0.196029	0	0
1897.46	0.018397	0.196027	0	0
1901.18	0.0564209	0.19603	0	0
1923.93	0.0943303	0.196024	0	0
1925.3	0.132507	0.196028	0	0
1926.4	0.170932	0.196027	0	0
1929.09	0.209433	0.196035	0	0
1930.43	0.247781	0.196027	0	0
1930.9	0.286626	0.196026	0	0
1931.17	0.325604	0.196024	0	0
1931.35	0.36443	0.196034	0	0
1931.49	0.403885	0.196023	0	0
1931.6	0.444448	0.196028	0	0
1931.7	0.483942	0.196032	0	0
1931.8	0.52334	0.196021	0	0
1931.89	0.563082	0.196027	0	0
1931.98	0.602747	0.196025	0	0
1932.07	0.642967	0.196022	0	0
1932.16	0.683243	0.196028	0	0
1932.24	0.722851	0.196029	0	0
1932.33	0.763376	0.196028	0	0
1932.42	0.803385	0.196028	0	0
1932.51	0.843356	0.196023	0	0
1932.6	0.884166	0.196029	0	0
1932.69	0.923966	0.196034	0	0
1932.77	0.964051	0.196027	0	0
1969.06	-0.0551114	0.196028	0	0
1969.25	-0.0142249	0.196031	0	0
1970.19	0.0241235	0.196027	0	0
1981.81	0.0620138	0.196031	0	0
1996.91	0.100152	0.19602	0	0
1998.19	0.138443	0.196027	0	0
1998.98	0.176849	0.196027	0	0
1999.75	0.215312	0.196032	0	0
2000.19	0.253851	0.196024	0	0
2000.44	0.292944	0.196021	0	0
2000.62	0.332304	0.196029	0	0
2000.74	0.371244	0.196021	0	0
2000.85	0.412074	0.196024	0	0
2000.94	0.452083	0.196025	0	0
2001.02	0.492073	0.19603	0	0
2001.1	0.531777	0.19603	0	0
2001.18	0.572702	0.196027	0	0
2001.26	0.61212	0.196018	0	0
2001.34	0.65253	0.196021	0	0
2001.42	0.69252	0.196025	0	0
2001.49	0.732815	0.19603	0	0
2001.57	0.772481	0.196024	0	0
2001.65	0.812738	0.196025	0	0
2001.73	0.853091	0.196032	0	0
2001.81	0.89289	0.196023	0	0
2001.89	0.932861	0.196022	0	0
2001.97	0.972984	0.196023	0	0
2038.23	-0.0435827	0.196033	0	0
2038.53	-0.00439442	0.196035	0	0
2039.94	0.0338395	0.196027	0	0
2058.7	0.0719588	0.196025	0	0
2065.31	0.110078	0.196023	0	0
2066.16	0.148713	0.196021	0	0
2066.79	0.187462	0.196023	0	0
2067.46	0.225811	0.196028	0	0
2067.88	0.264293	0.196019	0	0
2068.12	0.303271	0.196019	0	0
2068.27	0.34223	0.196016	0	0
2068.39	0.381743	0.196029	0	0
2068.49	0.42158	0.196028	0	0
2068.58	0.462162	0.19602	0	0
2068.66	0.50282	0.196024	0	0
2068.74	0.542677	0.196027	0	0
2068.82	0.582476	0.196028	0	0
2068.9	0.623286	0.196025	0	0
2068.98	0.66299	0.19602	0	0
2069.05	0.70256	0.196022	0	0
2069.13	0.742436	0.196025	0	0
2069.2	0.782788	0.196026	0	0
2069.28	0.82337	0.19603	0	0
2069.36	0.863322	0.196016	0	0
2069.43	0.902682	0.196021	0	0
2069.51	0.943226	0.19602	0	0
2069.59	0.982567	0.196028	0	0
2105.84	-0.0346685	0.19603	0	0
2106.3	0.0042335	0.196032	0	0
2108.4	0.0423338	0.196027	0	0
2127.56	0.0801859	0.196032	0	0
2131.14	0.11842	0.196032	0	0
2131.84	0.156787	0.196017	0	0
2132.45	0.195193	0.19602	0	0
2133.08	0.233541	0.19602	0	0
2133.53	0.272405	0.196029	0	0
2133.79	0.311059	0.196027	0	0
2133.96	0.350591	0.196024	0	0
2134.09	0.390199	0.196022	0	0
2134.19	0.429407	0.196025	0	0
2134.28	0.468996	0.196021	0	0
2134.37	0.509406	0.19602	0	0
2134.45	0.549873	0.196023	0	0
2134.53	0.589901	0.196025	0	0
2134.61	0.630235	0.196024	0	0
2134.68	0.669518	0.196026	0	0
2134.76	0.709585	0.196025	0	0
2134.83	0.750147	0.196022	0	0
2134.91	0.790347	0.196028	0	0
2134.98	0.830815	0.196024	0	0
2135.06	0.870556	0.196027	0	0
2135.14	0.910985	0.196021	0	0
2135.21	0.951128	0.19602	0	0
2135.29	0.991156	0.19602	0	0
2171.56	-0.0281594	0.196032	0	0
2172.15	0.0100936	0.196027	0	0
2175.05	0.0485756	0.19603	0	0
2192.52	0.086485	0.196029	0	0
2195.22	0.124967	0.196029	0	0
2195.97	0.163487	0.196027	0	0
2196.67	0.201931	0.19603	0	0
2197.36	0.240165	0.196034	0	0
2197.81	0.279201	0.196027	0	0
2198.08	0.318236	0.196036	0	0
2198.26	0.357081	0.196025	0	0
2198.4	0.396403	0.196027	0	0
2198.51	0.435648	0.196034	0	0
2198.6	0.475295	0.196027	0	0
2198.69	0.514922	0.196028	0	0
2198.78	0.554588	0.196028	0	0
2198.86	0.595208	0.196031	0	0
2198.93	0.635427	0.196025	0	0
2199.01	0.6766	0.196023	0	0
2199.09	0.716571	0.196026	0	0
2199.16	0.756485	0.196038	0	0
2199.24	0.796589	0.196028	0	0
2199.31	0.836789	0.196017	0	0
2199.39	0.877199	0.196028	0	0
2199.46	0.917094	0.196021	0	0
2199.54	0.957275	0.196026	0	0
2199.61	0.997952	0.196023	0	0
2235.92	-0.0226238	0.196027	0	0
2236.67	0.0157628	0.196028	0	0
2240.4	0.0539776	0.196025	0	0
2255.67	0.0918107	0.196025	0	0
2258.03	0.129815	0.196028	0	0
2258.92	0.16803	0.196027	0	0
2259.79	0.206321	0.196023	0	0
2260.55	0.244498	0.196021	0	0
2261.03	0.283018	0.196022	0	0
2261.32	0.321978	0.196021	0	0
2261.52	0.361109	0.196024	0	0
2261.66	0.400564	0.196024	0	0
2261.78	0.44023	0.196025	0	0
2261.87	0.479895	0.196016	0	0
2261.97	0.520057	0.196025	0	0
2262.05	0.560352	0.196035	0	0
2262.13	0.599617	0.196019	0	0
2262.21	0.639302	0.196024	0	0
2262.29	0.679272	0.196029	0	0
2262.36	0.719186	0.196024	0	0
2262.44	0.758546	0.196029	0	0
2262.51	0.798574	0.196028	0	0
2262.59	0.838679	0.196034	0	0
2262.66	0.878344	0.196021	0	0
2262.73	0.919136	0.196023	0	0
2262.81	0.959413	0.196023	0	0
2262.89	0.999383	0.196023	0	0
2299.2	-0.0212876	0.196023	0	0
2300.01	0.0174235	0.196028	0	0
2303.96	0.0555238	0.196035	0	0
2317.29	0.0934904	0.19603	0	0
2319.97	0.131705	0.196034	0	0
2321.15	0.17013	0.19602	0	0
2322.24	0.208688	0.196032	0	0
2323.06	0.247094	0.196027	0	0
2323.56	0.285576	0.19603	0	0
2323.86	0.324688	0.196034	0	0
2324.06	0.364468	0.196021	0	0
2324.21	0.404134	0.196023	0	0
2324.33	0.443723	0.196019	0	0
2324.43	0.483675	0.196016	0	0
2324.52	0.523569	0.196021	0	0
2324.61	0.563597	0.196028	0	0
2324.69	0.603244	0.196032	0	0
2324.78	0.643768	0.196032	0	0
2324.86	0.684522	0.196026	0	0
2324.93	0.725104	0.196014	0	0
2325.01	0.765704	0.196028	0	0
2325.09	0.806401	0.196027	0	0
2325.16	0.846906	0.196028	0	0
2325.24	0.886992	0.196027	0	0
2325.31	0.927001	0.19603	0	0
2325.38	0.966647	0.19603	0	0
2361.66	-0.0564101	0.19602	0	0
2361.82	-0.0155038	0.196025	0	0
2362.85	0.0228637	0.196028	0	0
2367.73	0.0608685	0.196029	0	0
2378.9	0.0992551	0.196018	0	0
2381.56	0.137565	0.19603	0	0
2383.02	0.176257	0.196023	0	0
2384.17	0.21472	0.196028	0	0
2384.97	0.25284	0.196025	0	0
2385.45	0.29157	0.196023	0	0
2385.74	0.330205	0.196023	0	0
2385.94	0.369164	0.196026	0	0
2386.08	0.407913	0.196037	0	0
2386.21	0.447674	0.196032	0	0
2386.32	0.487416	0.196027	0	0
2386.41	0.527482	0.196022	0	0
2386.5	0.566537	0.196035	0	0
2386.59	0.605973	0.196025	0	0
2386.67	0.645696	0.196027	0	0
2386.75	0.686564	0.196023	0	0
2386.83	0.727184	0.196023	0	0
2386.91	0.767174	0.196032	0	0
2386.98	0.806649	0.196025	0	0
2387.06	0.846734	0.196027	0	0
2387.13	0.886858	0.196024	0	0
2387.21	0.927478	0.196015	0	0
2387.28	0.967544	0.196031	0	0
2423.55	-0.0551884	0.196025	0	0
2423.73	-0.0144349	0.196029	0	0
2424.83	0.0243526	0.196028	0	0
2429.81	0.0623383	0.196028	0	0
2439.42	0.100477	0.196023	0	0
2442.5	0.138902	0.19602	0	0
2444.23	0.177116	0.196026	0	0
2445.45	0.215522	0.19603	0	0
2446.25	0.253909	0.196023	0	0
2446.73	0.292333	0.19602	0	0
2447.03	0.331293	0.19602	0	0
2447.23	0.370729	0.196036	0	0
2447.39	0.409917	0.196021	0	0
2447.52	0.449736	0.196032	0	0
2447.63	0.48984	0.196027	0	0
2447.73	0.52941	0.19602	0	0
2447.82	0.568904	0.19602	0	0
2447.91	0.608913	0.196024	0	0
2447.99	0.648693	0.19603	0	0
2448.08	0.688378	0.19602	0	0
2448.15	0.728139	0.19602	0	0
2448.23	0.76914	0.196024	0	0
2448.31	0.809531	0.196032	0	0
2448.39	0.849502	0.196026	0	0
2448.46	0.889454	0.196016	0	0
2448.54	0.929959	0.196023	0	0
2448.62	0.970026	0.196021	0	0
2484.88	-0.052936	0.19603	0	0
2485.08	-0.0124306	0.196027	0	0
2486.28	0.0262805	0.196027	0	0
2491.35	0.0643426	0.19603	0	0
2499.74	0.102252	0.196023	0	0
2503.11	0.140486	0.196025	0	0
2505.07	0.178968	0.196019	0	0
2506.28	0.217144	0.196025	0	0
2507.09	0.255779	0.196027	0	0
2507.57	0.29449	0.196016	0	0
2507.87	0.333392	0.196022	0	0
2508.08	0.372981	0.196023	0	0
2508.23	0.412857	0.196032	0	0
2508.36	0.452217	0.196024	0	0
2508.48	0.491787	0.196029	0	0
2508.58	0.531243	0.196024	0	0
2508.68	0.571481	0.19602	0	0
2508.77	0.610955	0.196028	0	0
2508.85	0.650888	0.19602	0	0
2508.94	0.690535	0.196025	0	0
2509.02	0.729856	0.196029	0	0
2509.1	0.769465	0.19602	0	0
2509.18	0.809073	0.196027	0	0
2509.26	0.848662	0.196023	0	0
2509.33	0.888423	0.196026	0	0
2509.41	0.92828	0.196023	0	0
2509.49	0.968861	0.196026	0	0
2545.76	-0.0544821	0.196027	0	0
2545.93	-0.0138813	0.196023	0	0
2547.01	0.0247343	0.196025	0	0
2551.46	0.0629873	0.196027	0	0
2558.92	0.101317	0.196021	0	0
2562.78	0.139436	0.196028	0	0
2564.99	0.177594	0.196028	0	0
2566.3	0.215656	0.196027	0	0
2567.13	0.254099	0.196027	0	0
2567.62	0.292601	0.196025	0	0
2567.92	0.331369	0.196025	0	0
2568.14	0.370405	0.196032	0	0
2568.3	0.409746	0.196026	0	0
2568.44	0.449144	0.196028	0	0
2568.56	0.489038	0.196015	0	0
2568.67	0.528704	0.196021	0	0
2568.78	0.568808	0.196035	0	0
2568.87	0.608856	0.19603	0	0
2568.96	0.649457	0.196025	0	0
2569.05	0.689275	0.196025	0	0
2569.14	0.729551	0.196026	0	0
2569.22	0.769808	0.196031	0	0
2569.3	0.809321	0.196032	0	0
2569.38	0.849197	0.196025	0	0
2569.46	0.88911	0.196032	0	0
2569.53	0.928986	0.196023	0	0
2569.61	0.9693	0.196024	0	0
2569.68	1.00082	0.196021	0	0

File: 2024-07-02_S20_Icell_t1800_C0010_J01_deltaX-110,2mm_plating-stripping_07_CP_C02.txt
time/s	Ewe/V	I/mA	error
2569.78	0.912787	-0.194577	0
2569.78	0.904285	-0.195969	0
2569.78	0.89854	-0.195966	0
2569.78	0.892279	-0.19597	0
2569.78	0.886533	-0.195967	0
2569.79	0.881112	-0.195963	0
2569.79	0.876073	-0.195966	0
2569.79	0.871148	-0.195964	0
2569.79	0.866586	-0.195964	0
2569.79	0.862062	-0.195972	0
2569.79	0.857767	-0.195967	0
2569.8	0.852594	-0.195964	0
2569.8	0.847803	-0.19597	0
2569.8	0.842	-0.195969	0
2569.8	0.836846	-0.195968	0
2569.8	0.831654	-0.195967	0
2569.81	0.826711	-0.195972	0
2569.81	0.821862	-0.195975	0
2569.81	0.816537	-0.195967	0
2569.81	0.811535	-0.195968	0
2569.82	0.806496	-0.195966	0
2569.82	0.801609	-0.195969	0
2569.82	0.797009	-0.195972	0
2569.82	0.792352	-0.195968	0
2569.83	0.787618	-0.195971	0
2569.83	0.783208	-0.195971	0
2569.83	0.778303	-0.195973	0
2569.83	0.772786	-0.195965	0
2569.84	0.767766	-0.195967	0
2569.84	0.762498	-0.195964	0
2569.84	0.756943	-0.195966	0
2569.84	0.752476	-0.195974	0
2569.85	0.747704	-0.195969	0
2569.85	0.742894	-0.195974	0
2569.85	0.738332	-0.195965	0
2569.86	0.733102	-0.195973	0
2569.86	0.728329	-0.195967	0
2569.86	0.72392	-0.195971	0
2569.87	0.719053	-0.195969	0
2569.87	0.714261	-0.195971	0
2569.87	0.709547	-0.195969	0
2569.87	0.704679	-0.195967	0
2569.88	0.699716	-0.195968	0
2569.88	0.695135	-0.195973	0
2569.88	0.690535	-0.195972	0
2569.89	0.686011	-0.195973	0
2569.89	0.681639	-0.195966	0
2569.89	0.676925	-0.195968	0
2569.9	0.672382	-0.195968	0
2569.9	0.667915	-0.195971	0
2569.9	0.663448	-0.195967	0
2569.91	0.658695	-0.195969	0
2569.91	0.65421	-0.195965	0
2569.91	0.649857	-0.195967	0
2569.92	0.645314	-0.195966	0
2569.92	0.641	-0.195971	0
2569.92	0.636457	-0.195962	0
2569.93	0.631934	-0.195963	0
2569.93	0.62741	-0.19597	0
2569.93	0.622886	-0.195968	0
2569.94	0.618362	-0.195965	0
2569.94	0.61401	-0.195969	0
2569.94	0.609486	-0.195974	0
2569.95	0.605076	-0.195966	0
2569.95	0.600514	-0.195969	0
2569.95	0.59578	-0.195975	0
2569.96	0.591237	-0.195969	0
2569.96	0.586694	-0.195966	0
2569.96	0.582399	-0.195966	0
2569.97	0.578181	-0.195969	0
2569.97	0.573466	-0.195964	0
2569.98	0.568866	-0.195972	0
2569.98	0.564113	-0.195964	0
2569.98	0.559589	-0.195968	0
2569.99	0.554855	-0.195968	0
2569.99	0.550522	-0.195971	0
2569.99	0.545788	-0.195968	0
2570	0.541073	-0.195969	0
2570	0.536244	-0.195969	0
2570.01	0.531529	-0.195963	0
2570.01	0.5267	-0.195967	0
2570.01	0.522252	-0.195973	0
2570.02	0.517709	-0.195967	0
2570.02	0.513262	-0.195966	0
2570.03	0.508509	-0.195971	0
2570.03	0.504309	-0.195966	0
2570.03	0.499881	-0.195967	0
2570.04	0.495452	-0.195972	0
2570.04	0.491119	-0.195966	0
2570.05	0.486385	-0.195966	0
2570.05	0.481976	-0.195962	0
2570.06	0.477356	-0.195968	0
2570.06	0.472871	-0.195966	0
2570.06	0.468347	-0.195966	0
2570.07	0.464033	-0.195966	0
2570.07	0.459165	-0.195968	0
2570.08	0.454794	-0.195968	0
2570.08	0.450232	-0.195971	0
2570.09	0.445822	-0.195964	0
2570.09	0.440993	-0.195965	0
2570.09	0.436526	-0.19597	0
2570.1	0.432365	-0.195966	0
2570.1	0.427612	-0.195969	0
2570.11	0.422993	-0.195966	0
2570.11	0.418431	-0.195966	0
2570.12	0.413869	-0.195966	0
2570.12	0.409287	-0.195971	0
2570.13	0.404668	-0.195967	0
2570.13	0.400316	-0.195968	0
2570.14	0.395544	-0.19597	0
2570.14	0.390944	-0.195973	0
2570.15	0.386381	-0.195968	0
2570.15	0.382087	-0.195973	0
2570.16	0.377257	-0.195968	0
2570.16	0.373039	-0.195963	0
2570.16	0.368477	-0.195973	0
2570.17	0.36422	-0.195964	0
2570.17	0.359753	-0.195965	0
2570.18	0.355516	-0.195968	0
2570.18	0.351068	-0.195972	0
2570.19	0.346296	-0.195964	0
2570.19	0.342039	-0.195966	0
2570.2	0.33742	-0.195968	0
2570.2	0.332839	-0.195968	0
2570.21	0.328353	-0.19597	0
2570.21	0.323829	-0.195965	0
2570.22	0.319324	-0.195972	0
2570.22	0.3148	-0.195967	0
2570.23	0.310429	-0.195962	0
2570.23	0.305791	-0.195968	0
2570.24	0.3014	-0.195969	0
2570.25	0.296724	-0.195968	0
2570.25	0.292295	-0.195961	0
2570.26	0.287848	-0.195963	0
2570.26	0.28361	-0.195968	0
2570.27	0.279143	-0.195964	0
2570.27	0.274543	-0.195973	0
2570.28	0.270076	-0.195972	0
2570.28	0.265801	-0.195971	0
2570.29	0.261219	-0.19597	0
2570.29	0.256848	-0.195963	0
2570.3	0.252343	-0.195966	0
2570.3	0.248182	-0.195969	0
2570.31	0.243735	-0.19597	0
2570.32	0.239497	-0.195966	0
2570.32	0.234897	-0.195971	0
2570.33	0.230583	-0.19597	0
2570.33	0.226135	-0.195966	0
2570.34	0.221745	-0.195969	0
2570.34	0.217144	-0.195975	0
2570.35	0.212697	-0.195962	0
2570.36	0.208135	-0.195968	0
2570.36	0.203706	-0.195973	0
2570.37	0.199297	-0.19597	0
2570.37	0.194983	-0.195975	0
2570.38	0.190841	-0.195968	0
2570.39	0.186431	-0.195972	0
2570.39	0.182137	-0.195971	0
2570.4	0.177498	-0.195964	0
2570.4	0.173127	-0.19597	0
2570.41	0.168584	-0.19597	0
2570.42	0.164041	-0.195965	0
2570.42	0.159689	-0.195972	0
2570.43	0.155356	-0.195971	0
2570.44	0.150774	-0.19597	0
2570.44	0.146403	-0.195971	0
2570.45	0.141917	-0.19597	0
2570.46	0.137642	-0.195965	0
2570.46	0.133232	-0.195973	0
2570.47	0.128861	-0.195966	0
2570.48	0.124604	-0.195966	0
2570.48	0.120367	-0.195972	0
2570.49	0.115881	-0.195973	0
2570.5	0.111319	-0.195969	0
2570.5	0.106967	-0.19597	0
2570.51	0.102596	-0.195961	0
2570.52	0.0979189	-0.195973	0
2570.52	0.0936813	-0.195969	0
2570.53	0.0893483	-0.195968	0
2570.54	0.0849961	-0.195968	0
2570.55	0.0807394	-0.195973	0
2570.55	0.0764637	-0.195968	0
2570.56	0.0720734	-0.195966	0
2570.57	0.0676067	-0.195967	0
2570.58	0.0633691	-0.195962	0
2570.58	0.0588833	-0.195969	0
2570.59	0.0545694	-0.19597	0
2570.6	0.0501218	-0.195964	0
2570.61	0.0457888	-0.195964	0
2570.62	0.0410739	-0.195967	0
2570.62	0.03676	-0.19597	0
2570.63	0.0325606	-0.195967	0
2570.64	0.0281321	-0.195973	0
2570.65	0.02357	-0.195973	0
2570.66	0.0192369	-0.195969	0
2570.67	0.0149611	-0.195971	0
2570.67	0.0106472	-0.195966	0
2570.68	0.00627595	-0.195964	0
2570.69	0.00184746	-0.195971	0
2570.7	-0.00235197	-0.195964	0
2570.71	-0.00676137	-0.195966	0
2570.72	-0.011228	-0.19597	0
2570.73	-0.0153702	-0.195969	0
2570.74	-0.0196651	-0.19597	0
2570.75	-0.0240936	-0.195969	0
2570.76	-0.0283312	-0.195967	0
2570.77	-0.0327787	-0.195968	0
2570.78	-0.0370736	-0.195971	0
2570.79	-0.0413303	-0.195968	0
2570.8	-0.0455679	-0.195971	0
2570.82	-0.0498819	-0.195969	0
2570.83	-0.054024	-0.195968	0
2570.85	-0.0582998	-0.195968	0
2570.87	-0.0625374	-0.195968	0
2570.89	-0.0669086	-0.195975	0
2570.92	-0.0711844	-0.195968	0
2570.95	-0.0753075	-0.195965	0
2571.02	-0.0793542	-0.19597	0
2573.3	-0.0834964	-0.19597	0
2575.17	-0.0876576	-0.195971	0
2577.01	-0.0917807	-0.195968	0
2579.11	-0.0958274	-0.195974	0
2581.61	-0.0999123	-0.195973	0
2584.39	-0.103978	-0.195977	0
2587.83	-0.108063	-0.195971	0
2592.19	-0.112129	-0.195971	0
2600.69	-0.116214	-0.195973	0
2605.78	-0.116901	-0.195969	0

File: 2024-07-02_S21_Icell_t1800_C0000_J01_deltaX-110,1mm_plating-stripping_02_MB_C03.txt
time/s	Ewe/V	I/mA	error	Ece/V
60.053	2.54917	-0.0250202	0	-0.000804487
60.1434	0.00913819	-6.88526	0	1.07886e-05
60.1442	0.00930998	-6.6907	0	6.80457e-05
60.145	0.00921454	-6.50581	0	2.98743e-05
60.1458	0.00910002	-6.3297	0	-6.55542e-05
60.1466	0.00908093	-6.16187	0	-8.29709e-06
60.1474	0.00917637	-6.00262	0	2.98743e-05
60.1482	0.00929089	-5.84992	0	0.000106217
60.149	0.00921454	-5.70378	0	0.000144388
60.1498	0.00921454	-5.56546	0	1.07886e-05
60.1506	0.00915728	-5.433	0	-8.29709e-06
60.1514	0.00915728	-5.30632	0	0.000106217
60.1522	0.00923363	-5.18557	0	6.80457e-05
60.153	0.0092718	-5.06926	0	8.71314e-05
60.1538	0.0092718	-4.95773	0	-2.73828e-05
60.1546	0.00915728	-4.85186	0	4.896e-05
60.1556	0.00923363	-4.72608	0	-2.73828e-05
60.1568	0.00923363	-4.58292	0	8.71314e-05
60.158	0.00915728	-4.44792	0	4.896e-05
60.1592	0.00913819	-4.3215	0	0.000106217
60.1604	0.00921454	-4.20246	0	-4.64685e-05
60.1616	0.00925271	-4.08851	0	1.07886e-05
60.1628	0.00921454	-3.98162	0	-6.55542e-05
60.1642	0.00923363	-3.86455	0	1.07886e-05
60.1658	0.0092718	-3.73883	0	-8.29709e-06
60.1674	0.00917637	-3.62196	0	4.896e-05
60.169	0.00919545	-3.511	0	-2.73828e-05
60.1706	0.00930998	-3.4085	0	1.07886e-05
60.1726	0.00934815	-3.28832	0	2.98743e-05
60.1746	0.00925271	-3.17704	0	4.896e-05
60.1766	0.00921454	-3.07346	0	8.71314e-05
60.179	0.00915728	-2.9576	0	4.896e-05
60.1814	0.00936724	-2.84989	0	-6.55542e-05
60.1842	0.00910002	-2.73613	0	-2.73828e-05
60.187	0.00919545	-2.63071	0	6.80457e-05
60.1902	0.00930998	-2.52032	0	-4.64685e-05
60.1936	0.00929089	-2.41241	0	6.80457e-05
60.1974	0.00936724	-2.30254	0	0.00018256
60.2014	0.00936724	-2.19788	0	-4.64685e-05
60.206	0.00923363	-2.08902	0	-0.000103726
60.211	0.00913819	-1.98226	0	2.98743e-05
60.2164	0.00915728	-1.87919	0	4.896e-05
60.2224	0.00917637	-1.7751	0	4.896e-05
60.2292	0.00923363	-1.67171	0	6.80457e-05
60.2368	0.00913819	-1.56909	0	-2.73828e-05
60.2452	0.00919545	-1.46863	0	6.80457e-05
60.2548	0.00936724	-1.36727	0	8.71314e-05
60.2658	0.00917637	-1.26592	0	2.98743e-05
60.2786	0.00921454	-1.16463	0	0.000106217
60.2938	0.00923363	-1.06277	0	0.000106217
60.3114	0.00921454	-0.961802	0	0.000144388
60.3334	0.00919545	-0.860959	0	2.98743e-05
60.3602	0.00925271	-0.760116	0	0.000106217
60.3944	0.00921454	-0.659464	0	-4.64685e-05
60.4426	0.00917637	-0.558239	0	-8.29709e-06
60.5106	0.00925271	-0.457905	0	0.000144388
60.6408	0.00932906	-0.345808	0	8.71314e-05
60.8664	0.00921454	-0.245743	0	0.000125303
61.4294	0.0091191	-0.145564	0	-2.73828e-05
64.3064	0.00913819	-0.0453779	0	8.71314e-05
84.3064	0.00915728	-0.00717199	0	-2.73828e-05
104.306	0.0092718	-0.00353371	0	4.896e-05
124.306	0.00915728	-0.0022956	0	-6.55542e-05
144.306	0.00929089	-0.00167104	0	-8.29709e-06
164.306	0.0092718	-0.00134695	0	1.07886e-05
184.306	0.00929089	-0.00111674	0	-2.73828e-05
204.306	0.00921454	-0.000951773	0	2.98743e-05
224.306	0.00917637	-0.000838929	0	0.000144388
244.306	0.00921454	-0.00073945	0	0.000163474
264.306	0.00925271	-0.000676694	0	-6.55542e-05
284.306	0.00921454	-0.000616549	0	6.80457e-05
304.306	0.00932906	-0.000577661	0	1.07886e-05
324.306	0.00919545	-0.000530754	0	0.000163474
344.306	0.00923363	-0.00048792	0	-2.73828e-05
364.306	0.00925271	-0.000430447	0	4.896e-05
384.306	0.00923363	-0.000417273	0	-8.46399e-05
404.306	0.0092718	-0.000388377	0	-4.64685e-05
424.306	0.00929089	-0.000389205	0	1.07886e-05
444.306	0.00932906	-0.000344334	0	0.000144388
464.306	0.00930998	-0.000352353	0	8.71314e-05
484.306	0.00929089	-0.000342106	0	-6.55542e-05
504.306	0.00919545	-0.000318175	0	4.896e-05
524.306	0.00917637	-0.000297745	0	6.80457e-05
544.306	0.00925271	-0.000311747	0	6.80457e-05
564.306	0.00936724	-0.000303855	0	-4.64685e-05
584.306	0.00915728	-0.000307483	0	-2.73828e-05
604.306	0.00915728	-0.00027305	0	6.80457e-05
624.306	0.00923363	-0.0002397	0	0.000144388
644.306	0.00923363	-0.000264267	0	1.07886e-05
664.306	0.00925271	-0.000239254	0	6.80457e-05
684.306	0.0092718	-0.000241736	0	-2.73828e-05
704.306	0.00929089	-0.000207367	0	-2.73828e-05
724.306	0.00915728	-0.000217423	0	-4.64685e-05
744.306	0.00919545	-0.000213414	0	0.000125303
764.306	0.0092718	-0.000191201	0	-8.46399e-05
784.306	0.00925271	-0.000170771	0	4.896e-05
804.306	0.00921454	-0.000195784	0	0.000163474
824.306	0.00925271	-0.000170389	0	4.896e-05
844.306	0.00923363	-0.0001842	0	-4.64685e-05
864.306	0.00929089	-0.000171344	0	-4.64685e-05
884.306	0.00913819	-0.000163579	0	4.896e-05
904.306	0.0091191	-0.000189865	0	0.000125303
924.306	0.00925271	-0.000175035	0	2.98743e-05
944.306	0.00921454	-0.000123991	0	4.896e-05
964.306	0.00917637	-0.000166125	0	0.000106217
984.306	0.00925271	-0.000158169	0	4.896e-05
1004.31	0.00925271	-0.00013602	0	-2.73828e-05
1024.31	0.00917637	-0.000156641	0	6.80457e-05
1044.31	0.00910002	-0.000130037	0	-2.73828e-05
1064.31	0.0092718	-0.000157914	0	8.71314e-05
1084.31	0.00915728	-0.000129401	0	1.07886e-05
1104.31	0.00915728	-0.000153459	0	2.98743e-05
1124.31	0.00921454	-0.000160333	0	-2.73828e-05
1144.31	0.0092718	-0.000144803	0	4.896e-05
1164.31	0.00915728	-0.000154032	0	8.71314e-05
1184.31	0.00930998	-0.000143848	0	8.71314e-05
1204.31	0.00917637	-0.000148049	0	0.000163474
1224.31	0.00923363	-0.000137802	0	4.896e-05
1244.31	0.00923363	-0.000125455	0	-2.73828e-05
1264.31	0.00929089	-0.00013672	0	1.07886e-05
1284.31	0.00919545	-0.000135065	0	2.98743e-05
1304.31	0.00919545	-0.000124818	0	4.896e-05
1324.31	0.0092718	-0.000120427	0	1.07886e-05
1344.31	0.00929089	-0.00014493	0	2.98743e-05
1364.31	0.00917637	-0.000122336	0	-2.73828e-05
1384.31	0.00923363	-9.94234e-05	0	-6.55542e-05
1404.31	0.00929089	-0.000128637	0	4.896e-05
1424.31	0.00929089	-0.000115208	0	2.98743e-05
1444.31	0.00921454	-0.000110243	0	-4.64685e-05
1464.31	0.00925271	-0.000119154	0	-4.64685e-05
1484.31	0.0092718	-0.000123991	0	-4.64685e-05
1504.31	0.00925271	-0.000115653	0	-6.55542e-05
1524.31	0.00921454	-0.000131501	0	-2.73828e-05
1544.31	0.00919545	-0.000112916	0	-2.73828e-05
1564.31	0.00925271	-9.9487e-05	0	-2.73828e-05
1584.31	0.00919545	-0.000113935	0	4.896e-05
1604.31	0.00923363	-0.000113362	0	-8.29709e-06
1624.31	0.00919545	-0.000128573	0	-8.29709e-06
1644.31	0.00919545	-8.21752e-05	0	1.07886e-05
1664.31	0.00915728	-9.09584e-05	0	6.80457e-05
1684.31	0.00921454	-0.00011769	0	4.896e-05
1704.31	0.00915728	-0.000117372	0	1.07886e-05
1724.31	0.00917637	-7.91839e-05	0	-8.46399e-05
1744.31	0.00932906	-0.000114317	0	-0.000141897
1764.31	0.0092718	-8.28753e-05	0	0.000106217
1784.31	0.00930998	-8.94309e-05	0	1.07886e-05
1804.31	0.00921454	-8.24935e-05	0	4.896e-05
1824.31	0.00919545	-7.89929e-05	0	-8.29709e-06
1844.31	0.0092718	-9.92324e-05	0	-8.46399e-05
1860.05	0.00915728	-9.12766e-05	0	-0.000180068