Folder: SUMMER-JOB-2024-MATERIALS-PHYSICS/EXPERIMENTAL/DATA/Electrochemical-cycling/S-series (part 2)

File: 2024-06-19_S06_Icell_t1800_C0001_J01_02_MB_C10.txt
time/s	Ewe/V	I/mA	error	Ece/V
60.053	2.82912	-0.0250155	0	-0.00139481
60.1438	0.00863056	-6.24967	0	-4.25666e-05
60.145	0.00864965	-6.13834	0	-8.07476e-05
60.1462	0.00864965	-6.03217	0	-8.07476e-05
60.1474	0.00872602	-5.93066	0	-2.34761e-05
60.149	0.00857329	-5.80423	0	-6.16571e-05
60.1506	0.00868784	-5.68322	0	1.47049e-05
60.1522	0.00861147	-5.57093	0	3.37954e-05
60.1538	0.00863056	-5.46356	0	7.19764e-05
60.1554	0.00859238	-5.36236	0	1.47049e-05
60.1574	0.00878329	-5.24364	0	7.19764e-05
60.1594	0.0085542	-5.13232	0	1.47049e-05
60.1614	0.00874511	-5.02679	0	1.47049e-05
60.1636	0.0085542	-4.91731	0	0.000110157
60.166	0.00863056	-4.80522	0	-4.38561e-06
60.1684	0.00870693	-4.69867	0	-9.98381e-05
60.1712	0.00861147	-4.58511	0	5.28859e-05
60.174	0.0087642	-4.47742	0	1.47049e-05
60.177	0.00874511	-4.36934	0	-4.38561e-06
60.1802	0.00849693	-4.2626	0	3.37954e-05
60.1836	0.00868784	-4.15599	0	0.000129248
60.1872	0.00851602	-4.05091	0	1.47049e-05
60.191	0.00849693	-3.94716	0	-4.38561e-06
60.1952	0.00861147	-3.84068	0	3.37954e-05
60.1996	0.00861147	-3.73725	0	0.000110157
60.2044	0.00866874	-3.63262	0	1.47049e-05
60.2096	0.00866874	-3.52696	0	-4.25666e-05
60.2152	0.00857329	-3.42169	0	9.10669e-05
60.2212	0.0085542	-3.31718	0	7.19764e-05
60.2276	0.00864965	-3.21465	0	-0.000118929
60.2344	0.00859238	-3.11313	0	9.10669e-05
60.2418	0.00859238	-3.01277	0	-6.16571e-05
60.2498	0.00864965	-2.91042	0	5.28859e-05
60.2588	0.00866874	-2.80553	0	-2.34761e-05
60.2682	0.00863056	-2.70421	0	3.37954e-05
60.2788	0.00857329	-2.59957	0	-8.07476e-05
60.29	0.00861147	-2.49895	0	0.000129248
60.3022	0.00864965	-2.39757	0	9.10669e-05
60.3158	0.00866874	-2.29503	0	1.47049e-05
60.3306	0.00874511	-2.19307	0	-6.16571e-05
60.347	0.00866874	-2.0913	0	7.19764e-05
60.365	0.00853511	-1.98966	0	0.000129248
60.385	0.00870693	-1.88853	0	-8.07476e-05
60.4076	0.00872602	-1.78708	0	3.37954e-05
60.4328	0.00864965	-1.68589	0	9.10669e-05
60.4612	0.00863056	-1.58527	0	5.28859e-05
60.4936	0.00866874	-1.48401	0	1.47049e-05
60.5308	0.00874511	-1.38326	0	3.37954e-05
60.5738	0.00870693	-1.2827	0	0.000148338
60.6252	0.00863056	-1.1817	0	-4.25666e-05
60.6858	0.00861147	-1.08088	0	-4.25666e-05
60.759	0.00861147	-0.980072	0	0.000110157
60.8494	0.00864965	-0.879705	0	3.37954e-05
60.964	0.00866874	-0.779275	0	3.37954e-05
61.1098	0.00859238	-0.678271	0	-2.34761e-05
61.3232	0.00872602	-0.577714	0	5.28859e-05
61.6358	0.00859238	-0.477283	0	0.000186519
62.1894	0.00866874	-0.377189	0	-2.34761e-05
63.2302	0.00874511	-0.277075	0	5.28859e-05
66.3172	0.00864965	-0.177	0	-4.38561e-06
81.8392	0.00866874	-0.0947478	0	3.37954e-05
97.2144	0.00861147	-0.0714709	0	1.47049e-05
117.214	0.00866874	-0.0604624	0	1.47049e-05
137.214	0.0087642	-0.0532846	0	-8.07476e-05
157.214	0.00866874	-0.0488819	0	1.47049e-05
177.214	0.00870693	-0.0453978	0	7.19764e-05
197.214	0.00868784	-0.0425754	0	9.10669e-05
200.959	0.00866874	-0.0428997	0	3.37954e-05
218.376	0.014167	-0.114961	0	7.19764e-05
228.407	0.00874511	-0.0393738	0	-2.34761e-05
248.407	0.00870693	-0.0376692	0	7.19764e-05
268.407	0.00868784	-0.0362071	0	7.19764e-05
288.407	0.00872602	-0.0346292	0	0.000110157
308.407	0.00868784	-0.033421	0	7.19764e-05
328.407	0.00863056	-0.0322636	0	3.37954e-05
348.407	0.0087642	-0.031761	0	0.000110157
368.407	0.00870693	-0.0310121	0	-4.38561e-06
388.407	0.00868784	-0.0302671	0	3.37954e-05
408.407	0.00868784	-0.0293763	0	9.10669e-05
428.407	0.00866874	-0.028812	0	-0.000138019
448.407	0.00870693	-0.0283131	0	-6.16571e-05
468.407	0.00866874	-0.0283443	0	3.37954e-05
488.407	0.00866874	-0.0271214	0	0.000110157
508.407	0.00880238	-0.026718	0	-2.34761e-05
528.407	0.0087642	-0.0263942	0	3.37954e-05
548.407	0.00870693	-0.0259615	0	5.28859e-05
568.407	0.0087642	-0.0255499	0	3.37954e-05
588.407	0.0087642	-0.024878	0	0.000110157
608.407	0.00874511	-0.0249079	0	1.47049e-05
628.407	0.00870693	-0.0245955	0	5.28859e-05
648.407	0.00880238	-0.0243321	0	-2.34761e-05
668.407	0.00872602	-0.0240846	0	0.000110157
688.407	0.00866874	-0.023713	0	5.28859e-05
708.407	0.00870693	-0.023442	0	-4.38561e-06
728.407	0.00870693	-0.0231378	0	1.47049e-05
748.407	0.00861147	-0.0230246	0	-4.38561e-06
768.407	0.00861147	-0.0228394	0	5.28859e-05
788.407	0.00872602	-0.0225951	0	0.000110157
808.407	0.00872602	-0.0223215	0	-4.38561e-06
828.407	0.00887875	-0.0220435	0	7.19764e-05
848.407	0.00870693	-0.0218832	0	5.28859e-05
868.407	0.00864965	-0.0216948	0	-4.38561e-06
888.407	0.00863056	-0.0214327	0	-4.38561e-06
908.407	0.00861147	-0.021203	0	-4.25666e-05
928.407	0.00866874	-0.0209879	0	-4.38561e-06
948.407	0.00878329	-0.0209269	0	7.19764e-05
968.407	0.00868784	-0.0206876	0	-4.38561e-06
988.407	0.00872602	-0.0205133	0	7.19764e-05
1008.41	0.00863056	-0.0204128	0	-8.07476e-05
1028.41	0.00864965	-0.0202314	0	7.19764e-05
1048.41	0.00866874	-0.0199629	0	3.37954e-05
1068.41	0.00874511	-0.0198395	0	-4.25666e-05
1088.41	0.00870693	-0.0196105	0	9.10669e-05
1108.41	0.00882147	-0.019251	0	-0.000118929
1128.41	0.00868784	-0.0191333	0	7.19764e-05
1148.41	0.00874511	-0.0189583	0	-2.34761e-05
1168.41	0.00874511	-0.0188037	0	-0.000118929
1188.41	0.0087642	-0.018637	0	5.28859e-05
1208.41	0.00866874	-0.0185218	0	3.37954e-05
1228.41	0.00874511	-0.0185091	0	0.000148338
1248.41	0.00872602	-0.018532	0	9.10669e-05
1268.41	0.00878329	-0.0184289	0	-4.38561e-06
1288.41	0.00872602	-0.0182794	0	-4.25666e-05
1308.41	0.00874511	-0.0181693	0	-2.34761e-05
1328.41	0.00866874	-0.0180185	0	0.000148338
1348.41	0.00866874	-0.0179231	0	0.000148338
1368.41	0.00868784	-0.017771	0	7.19764e-05
1388.41	0.00864965	-0.0175566	0	5.28859e-05
1408.41	0.00857329	-0.0174618	0	-4.38561e-06
1428.41	0.00857329	-0.0172894	0	-6.16571e-05
1448.41	0.00861147	-0.0171717	0	3.37954e-05
1468.41	0.00868784	-0.017019	0	-8.07476e-05
1488.41	0.00861147	-0.0166442	0	9.10669e-05
1508.41	0.0087642	-0.0168962	0	-4.38561e-06
1528.41	0.00868784	-0.0168294	0	9.10669e-05
1548.41	0.00857329	-0.0168097	0	9.10669e-05
1568.41	0.00866874	-0.016699	0	1.47049e-05
1588.41	0.00861147	-0.0165214	0	-4.38561e-06
1608.41	0.00864965	-0.0165113	0	5.28859e-05
1628.41	0.00870693	-0.0164114	0	5.28859e-05
1648.41	0.00861147	-0.0161989	0	-4.25666e-05
1668.41	0.00870693	-0.0161359	0	-9.98381e-05
1688.41	0.00863056	-0.0160614	0	3.37954e-05
1708.41	0.00866874	-0.0159246	0	5.28859e-05
1728.41	0.00866874	-0.015903	0	-2.34761e-05
1748.41	0.00859238	-0.0155034	0	1.47049e-05
1768.41	0.00870693	-0.015597	0	-2.34761e-05
1788.41	0.00868784	-0.0155314	0	1.47049e-05
1808.41	0.00874511	-0.0153425	0	-8.07476e-05
1828.41	0.00878329	-0.0152585	0	1.47049e-05
1848.41	0.00870693	-0.0152044	0	9.10669e-05
1860.05	0.00872602	-0.0150345	0	3.37954e-05

File: 2024-06-19_S07_Icell_t1800_C0003_J01_02_MB_C09.txt
time/s	Ewe/V	I/mA	error	Ece/V
60.053	2.8316	-0.025008	0	-0.00158786
60.1438	0.00835245	-5.10104	0	-5.1858e-05
60.145	0.00835245	-4.96684	0	-5.1858e-05
60.1462	0.00835245	-4.84007	0	6.26537e-05
60.1474	0.00837153	-4.72043	0	2.44831e-05
60.1486	0.00837153	-4.60663	0	0.00011991
60.1498	0.00837153	-4.49919	0	0.000100824
60.151	0.0084288	-4.3969	0	4.35684e-05
60.1526	0.00829519	-4.26784	0	2.44831e-05
60.1542	0.00831427	-4.14813	0	-3.27727e-05
60.1558	0.00848606	-4.03395	0	-1.36875e-05
60.1574	0.00833336	-3.92823	0	-5.1858e-05
60.1592	0.00839062	-3.81526	0	5.39784e-06
60.1612	0.00833336	-3.69924	0	4.35684e-05
60.1632	0.00837153	-3.59097	0	-9.00286e-05
60.1652	0.0082761	-3.48938	0	4.35684e-05
60.1676	0.00837153	-3.37679	0	2.44831e-05
60.17	0.00848606	-3.27265	0	4.35684e-05
60.1728	0.00837153	-3.16038	0	6.26537e-05
60.1756	0.00835245	-3.05752	0	-5.1858e-05
60.1788	0.00837153	-2.94963	0	-7.09433e-05
60.1824	0.00831427	-2.8401	0	6.26537e-05
60.1862	0.00833336	-2.73406	0	4.35684e-05
60.1904	0.0084288	-2.62859	0	0.000177165
60.195	0.0084288	-2.52502	0	2.44831e-05
60.2	0.0084288	-2.4221	0	6.26537e-05
60.2056	0.00829519	-2.3193	0	-1.36875e-05
60.2118	0.00833336	-2.21726	0	-5.1858e-05
60.2186	0.0082761	-2.11561	0	8.1739e-05
60.2264	0.0084288	-2.01128	0	4.35684e-05
60.235	0.00840971	-1.90925	0	-3.27727e-05
60.2444	0.00848606	-1.8081	0	0.000138995
60.2552	0.00844788	-1.70676	0	5.39784e-06
60.2672	0.00829519	-1.60479	0	6.26537e-05
60.281	0.00835245	-1.50301	0	5.39784e-06
60.2964	0.00831427	-1.40174	0	5.39784e-06
60.3142	0.00829519	-1.29976	0	8.1739e-05
60.3348	0.00837153	-1.19868	0	2.44831e-05
60.3586	0.00825701	-1.09728	0	0.000100824
60.3864	0.00839062	-0.996959	0	-1.36875e-05
60.42	0.00844788	-0.895877	0	8.1739e-05
60.4608	0.00839062	-0.795748	0	0.000100824
60.5126	0.0084288	-0.694856	0	-3.27727e-05
60.5806	0.00829519	-0.59371	0	5.39784e-06
60.6736	0.00844788	-0.492818	0	4.35684e-05
60.8172	0.00837153	-0.392716	0	8.1739e-05
61.042	0.00840971	-0.292492	0	4.35684e-05
61.4818	0.00852423	-0.192371	0	0.000100824
62.7814	0.00844788	-0.0921987	0	0.00011991
75.6746	0.0084288	-0.0141035	0	4.35684e-05
95.6746	0.00844788	-0.00570194	0	0.00011991
115.675	0.00848606	-0.00355083	0	6.26537e-05
135.675	0.00850514	-0.00258097	0	4.35684e-05
155.675	0.0084288	-0.00204854	0	0.000100824
175.675	0.00850514	-0.00172858	0	2.44831e-05
195.675	0.00840971	-0.00152151	0	8.1739e-05
215.675	0.00833336	-0.00134467	0	-9.00286e-05
235.675	0.0084288	-0.00121517	0	0.000138995
255.675	0.00844788	-0.00112334	0	4.35684e-05
275.675	0.00848606	-0.00104005	0	4.35684e-05
295.675	0.00846697	-0.000961837	0	5.39784e-06
315.675	0.0084288	-0.000906284	0	4.35684e-05
335.675	0.00831427	-0.000865239	0	0.000138995
355.675	0.00840971	-0.000819295	0	6.26537e-05
375.675	0.00839062	-0.000798422	0	2.44831e-05
395.675	0.00844788	-0.000767814	0	8.1739e-05
415.675	0.00839062	-0.000737014	0	4.35684e-05
435.675	0.0084288	-0.000717478	0	-5.1858e-05
455.675	0.00846697	-0.000684324	0	4.35684e-05
475.675	0.00839062	-0.000674715	0	-1.36875e-05
495.675	0.0085624	-0.000666252	0	-1.36875e-05
515.675	0.00840971	-0.00062648	0	6.26537e-05
535.675	0.00844788	-0.000608853	0	6.26537e-05
555.675	0.00846697	-0.000592308	0	-1.36875e-05
575.675	0.00846697	-0.000573536	0	5.39784e-06
595.675	0.0084288	-0.000554763	0	6.26537e-05
615.675	0.0084288	-0.000575063	0	0.000100824
635.675	0.00844788	-0.000541336	0	8.1739e-05
655.675	0.00848606	-0.000543182	0	2.44831e-05
675.675	0.00844788	-0.000524537	0	6.26537e-05
695.675	0.00839062	-0.000515818	0	4.35684e-05
715.675	0.0084288	-0.000520655	0	-5.1858e-05
735.675	0.00846697	-0.000476365	0	4.35684e-05
755.675	0.00844788	-0.000488583	0	0.000177165
775.675	0.00846697	-0.000498128	0	6.26537e-05
795.675	0.0084288	-0.000489601	0	6.26537e-05
815.675	0.00833336	-0.000482792	0	-1.36875e-05
835.675	0.00846697	-0.000459883	0	4.35684e-05
855.675	0.0084288	-0.000468983	0	2.44831e-05
875.675	0.0084288	-0.000473883	0	0.000100824
895.675	0.00846697	-0.000448938	0	-5.1858e-05
915.675	0.00837153	-0.000437738	0	2.44831e-05
935.675	0.00844788	-0.000429147	0	4.35684e-05
955.675	0.00846697	-0.000428511	0	5.39784e-06
975.675	0.00844788	-0.000421257	0	6.26537e-05
995.675	0.0084288	-0.000406748	0	6.26537e-05
1015.67	0.0084288	-0.000409166	0	-1.36875e-05
1035.67	0.00844788	-0.000412984	0	8.1739e-05
1055.67	0.00846697	-0.000412539	0	0.00011991
1075.67	0.00840971	-0.000409102	0	6.26537e-05
1095.67	0.0084288	-0.000408402	0	-9.00286e-05
1115.67	0.00844788	-0.000377157	0	0.000100824
1135.67	0.0084288	-0.000393957	0	0.000138995
1155.67	0.00837153	-0.000384412	0	8.1739e-05
1175.67	0.00850514	-0.000356158	0	6.26537e-05
1195.67	0.00848606	-0.000361249	0	4.35684e-05
1215.67	0.00844788	-0.000375694	0	-3.27727e-05
1235.67	0.0084288	-0.000359721	0	6.26537e-05
1255.67	0.00846697	-0.000384221	0	-9.00286e-05
1275.67	0.00854332	-0.000353803	0	0.00011991
1295.67	0.00835245	-0.000369267	0	-5.1858e-05
1315.67	0.0084288	-0.000511873	0	6.26537e-05
1335.67	0.0084288	-0.000340249	0	6.26537e-05
1355.67	0.00844788	-0.000349158	0	-1.36875e-05
1375.67	0.00844788	-0.000340058	0	2.44831e-05
1395.67	0.0084288	-0.000360421	0	0.000138995
1415.67	0.00850514	-0.000339104	0	-7.09433e-05
1435.67	0.00844788	-0.000336558	0	-3.27727e-05
1455.67	0.00833336	-0.000330958	0	-3.27727e-05
1475.67	0.00839062	-0.00031664	0	-7.09433e-05
1495.67	0.00839062	-0.000345467	0	-0.000109114
1515.67	0.00848606	-0.000355776	0	8.1739e-05
1535.67	0.0084288	-0.000324722	0	2.44831e-05
1555.67	0.00840971	-0.000318931	0	-5.1858e-05
1575.67	0.00850514	-0.000312313	0	2.44831e-05
1595.67	0.00844788	-0.000334395	0	0.00011991
1615.67	0.00839062	-0.000284886	0	5.39784e-06
1635.67	0.00839062	-0.000307541	0	4.35684e-05
1655.67	0.00840971	-0.000323704	0	0.000100824
1675.67	0.00840971	-0.000303532	0	4.35684e-05
1695.67	0.00848606	-0.000291441	0	-1.36875e-05
1715.67	0.00839062	-0.000298695	0	4.35684e-05
1735.67	0.00840971	-0.000303595	0	5.39784e-06
1755.67	0.00840971	-0.000275468	0	0.000234421
1775.67	0.00840971	-0.000304995	0	0.000138995
1795.67	0.00846697	-0.00024906	0	6.26537e-05
1815.67	0.00844788	-0.000292141	0	6.26537e-05
1835.67	0.00835245	-0.000282977	0	8.1739e-05
1855.67	0.00852423	-0.000290677	0	4.35684e-05
1860.05	0.00839062	-0.00027935	0	-1.36875e-05

File: 2024-06-19_S07_Icell_t1800_C0003_J01_04_CP_C09.txt
time/s	Ewe/V	I/mA	error	Ece/V
1860.21	-0.00368934	-0.194647	0	-0.00158786
1860.21	-0.0139328	-0.195982	0	0.000177165
1860.21	-0.0174639	-0.19598	0	0.00015808
1860.21	-0.0202697	-0.195984	0	-3.27727e-05
1860.21	-0.0229609	-0.195982	0	8.1739e-05
1860.21	-0.0255949	-0.195984	0	-1.36875e-05
1860.21	-0.0279808	-0.195982	0	4.35684e-05
1860.21	-0.0302712	-0.195983	0	4.35684e-05
1860.21	-0.0326761	-0.195981	0	5.39784e-06
1860.21	-0.0347757	-0.195982	0	8.1739e-05
1860.21	-0.0369898	-0.195983	0	5.39784e-06
1860.21	-0.0401009	-0.195987	0	5.39784e-06
1860.21	-0.0441282	-0.195987	0	0.00011991
1860.21	-0.047144	-0.195983	0	5.39784e-06
1860.21	-0.0508277	-0.195991	0	6.26537e-05
1860.21	-0.0547214	-0.19598	0	-1.36875e-05
1860.21	-0.05747	-0.195987	0	0.000100824
1860.21	-0.0608674	-0.19598	0	5.39784e-06
1860.22	-0.0643985	-0.195984	0	0.000138995
1860.22	-0.0677196	-0.195989	0	0.000138995
1860.22	-0.0709644	-0.195985	0	0.000100824
1860.22	-0.0741328	-0.195989	0	0.000138995
1860.22	-0.0773394	-0.195984	0	8.1739e-05
1860.22	-0.0802215	-0.195982	0	2.44831e-05
1860.22	-0.083199	-0.19598	0	0.000100824
1860.22	-0.0861575	-0.19598	0	2.44831e-05
1860.22	-0.0889251	-0.195987	0	4.35684e-05
1860.22	-0.09154	-0.195985	0	0.000100824
1860.22	-0.094403	-0.195985	0	-3.27727e-05
1860.22	-0.0968461	-0.195981	0	6.26537e-05
1860.23	-0.0995183	-0.19598	0	0.00011991
1860.23	-0.102038	-0.19598	0	0.000100824
1860.23	-0.104462	-0.195985	0	4.35684e-05
1860.23	-0.106771	-0.195989	0	4.35684e-05
1860.23	-0.1091	-0.195983	0	6.26537e-05
1860.23	-0.111409	-0.195985	0	5.39784e-06
1860.23	-0.113757	-0.195987	0	8.1739e-05
1860.23	-0.115799	-0.195988	0	-1.36875e-05
1860.23	-0.117937	-0.195987	0	6.26537e-05
1860.23	-0.120056	-0.195985	0	8.1739e-05
1860.23	-0.123091	-0.195985	0	5.39784e-06
1860.23	-0.126049	-0.195986	0	4.35684e-05
1860.24	-0.128931	-0.195985	0	2.44831e-05
1860.24	-0.131699	-0.195977	0	0.000100824
1860.24	-0.133989	-0.195978	0	6.26537e-05
1860.24	-0.13649	-0.195989	0	8.1739e-05
1860.24	-0.139104	-0.195987	0	6.26537e-05
1860.24	-0.141357	-0.195985	0	0.00015808
1860.24	-0.143876	-0.195993	0	8.1739e-05
1860.24	-0.146205	-0.195982	0	2.44831e-05
1860.25	-0.148457	-0.195989	0	-0.000109114
1860.25	-0.150652	-0.195985	0	0.000138995
1860.25	-0.152752	-0.195984	0	-1.36875e-05
1860.25	-0.155156	-0.195985	0	8.1739e-05
1860.25	-0.157199	-0.195985	0	-5.1858e-05
1860.25	-0.159413	-0.195989	0	8.1739e-05
1860.25	-0.16178	-0.195987	0	0.000138995
1860.25	-0.163917	-0.19598	0	5.39784e-06
1860.26	-0.16638	-0.195984	0	0.000138995
1860.26	-0.168517	-0.195989	0	6.26537e-05
1860.26	-0.170693	-0.195991	0	0.00015808
1860.26	-0.172869	-0.195982	0	8.1739e-05
1860.26	-0.175007	-0.195978	0	4.35684e-05
1860.26	-0.177374	-0.195982	0	-3.27727e-05
1860.27	-0.179664	-0.195981	0	6.26537e-05
1860.27	-0.18205	-0.195986	0	4.35684e-05
1860.27	-0.184321	-0.195986	0	8.1739e-05
1860.27	-0.186402	-0.195978	0	0.000138995
1860.28	-0.188558	-0.195985	0	-7.09433e-05
1860.28	-0.190773	-0.195984	0	4.35684e-05
1860.28	-0.192796	-0.195986	0	6.26537e-05
1860.29	-0.192758	-0.195982	0	5.39784e-06
1860.3	-0.190582	-0.195991	0	6.26537e-05
1860.3	-0.188291	-0.195987	0	-3.27727e-05
1860.3	-0.186134	-0.195991	0	6.26537e-05
1860.3	-0.183978	-0.195986	0	4.35684e-05
1860.31	-0.181744	-0.195989	0	5.39784e-06
1860.31	-0.179034	-0.195987	0	8.1739e-05
1860.31	-0.176667	-0.195986	0	6.26537e-05
1860.31	-0.17411	-0.195987	0	8.1739e-05
1860.31	-0.171552	-0.195986	0	-1.36875e-05
1860.31	-0.169128	-0.195985	0	4.35684e-05
1860.31	-0.16678	-0.195987	0	2.44831e-05
1860.32	-0.1647	-0.195988	0	-5.1858e-05
1860.32	-0.162352	-0.195985	0	2.44831e-05
1860.32	-0.159985	-0.195981	0	4.35684e-05
1860.32	-0.157447	-0.195984	0	2.44831e-05
1860.32	-0.154813	-0.195987	0	0.000100824
1860.32	-0.152752	-0.195985	0	8.1739e-05
1860.32	-0.150175	-0.195982	0	6.26537e-05
1860.33	-0.147942	-0.195986	0	8.1739e-05
1860.33	-0.145556	-0.195989	0	4.35684e-05
1860.33	-0.143094	-0.195992	0	0.000177165
1860.33	-0.140899	-0.195985	0	4.35684e-05
1860.33	-0.138646	-0.195982	0	4.35684e-05
1860.33	-0.13628	-0.195983	0	2.44831e-05
1860.34	-0.133779	-0.195988	0	2.44831e-05
1860.34	-0.131393	-0.195982	0	-3.27727e-05
1860.34	-0.129275	-0.195988	0	4.35684e-05
1860.34	-0.126965	-0.195984	0	0.000100824
1860.34	-0.124751	-0.195989	0	8.1739e-05
1860.35	-0.122556	-0.195989	0	4.35684e-05
1860.35	-0.120323	-0.195984	0	-3.27727e-05
1860.35	-0.118033	-0.195987	0	8.1739e-05
1860.36	-0.115666	-0.195981	0	2.44831e-05
1860.36	-0.113547	-0.195985	0	4.35684e-05
1860.37	-0.111524	-0.195986	0	4.35684e-05
1860.37	-0.109482	-0.195985	0	0.000100824
1860.38	-0.107248	-0.195989	0	8.1739e-05
1860.38	-0.105187	-0.19599	0	5.39784e-06
1860.39	-0.103107	-0.195989	0	4.35684e-05
1860.4	-0.101007	-0.195991	0	-1.36875e-05
1860.42	-0.0987357	-0.195986	0	4.35684e-05
1860.45	-0.0966362	-0.195991	0	-3.27727e-05
1860.49	-0.0945748	-0.195984	0	6.26537e-05
1860.58	-0.0925516	-0.195986	0	8.1739e-05
1861.72	-0.0945939	-0.195985	0	-1.36875e-05
1862.61	-0.0966744	-0.195988	0	8.1739e-05
1863.89	-0.0987166	-0.195986	0	-3.27727e-05
1865.71	-0.100797	-0.19599	0	0.00015808
1868.2	-0.102839	-0.195983	0	5.39784e-06
1871.01	-0.104366	-0.195985	0	8.1739e-05

File: 2024-06-19_S09_Icell_t1800_C0030_J01_02_MB_C09.txt
time/s	Ewe/V	I/mA	error	Ece/V
60.053	2.87676	-0.025008	0	-0.00166802
60.144	0.00846697	-4.62939	0	5.39784e-06
60.146	0.00833336	-4.51019	0	-5.1858e-05
60.148	0.00840971	-4.40116	0	8.1739e-05
60.1502	0.0084288	-4.2906	0	0.000100824
60.1526	0.0084288	-4.17935	0	-1.36875e-05
60.155	0.0084288	-4.07642	0	8.1739e-05
60.1578	0.00835245	-3.96574	0	8.1739e-05
60.1608	0.00837153	-3.85766	0	-1.36875e-05
60.164	0.00835245	-3.74971	0	4.35684e-05
60.1674	0.00848606	-3.6445	0	4.35684e-05
60.171	0.00829519	-3.54011	0	6.26537e-05
60.175	0.00829519	-3.43324	0	2.44831e-05
60.1792	0.0084288	-3.3272	0	5.39784e-06
60.1838	0.00840971	-3.2197	0	2.44831e-05
60.1886	0.00837153	-3.11467	0	4.35684e-05
60.1938	0.00840971	-3.00863	0	-3.27727e-05
60.1992	0.00833336	-2.90507	0	5.39784e-06
60.205	0.00839062	-2.80024	0	0.000100824
60.2112	0.00848606	-2.69699	0	-1.36875e-05
60.2176	0.00833336	-2.59553	0	6.26537e-05
60.2246	0.00852423	-2.49362	0	-5.1858e-05
60.232	0.00839062	-2.39254	0	-3.27727e-05
60.2402	0.00833336	-2.28986	0	-1.36875e-05
60.2492	0.0082761	-2.18579	0	-1.36875e-05
60.2586	0.00833336	-2.08566	0	2.44831e-05
60.2688	0.00852423	-1.98471	0	-1.36875e-05
60.2802	0.0084288	-1.88134	0	8.1739e-05
60.2926	0.00848606	-1.77956	0	8.1739e-05
60.3058	0.00840971	-1.67885	0	-3.27727e-05
60.3208	0.0084288	-1.57847	0	-3.27727e-05
60.3374	0.00835245	-1.47771	0	-5.1858e-05
60.3562	0.00833336	-1.37618	0	-3.27727e-05
60.3776	0.00829519	-1.27573	0	-7.09433e-05
60.402	0.00846697	-1.17522	0	2.44831e-05
60.4314	0.00839062	-1.07388	0	5.39784e-06
60.4664	0.00840971	-0.973119	0	8.1739e-05
60.5092	0.00837153	-0.872545	0	0.000100824
60.563	0.00829519	-0.772034	0	-7.09433e-05
60.6322	0.00837153	-0.671397	0	2.44831e-05
60.7228	0.00840971	-0.571141	0	4.35684e-05
60.8494	0.00835245	-0.470694	0	0.000177165
61.0462	0.00833336	-0.370452	0	-5.1858e-05
61.3556	0.00848606	-0.269967	0	0.000138995
61.9666	0.00850514	-0.169954	0	8.1739e-05
63.9474	0.00848606	-0.0698965	0	5.39784e-06
81.347	0.00840971	-0.0102823	0	-3.27727e-05
101.347	0.00839062	-0.00621094	0	5.39784e-06
121.347	0.00848606	-0.00437262	0	5.39784e-06
141.347	0.00846697	-0.00307618	0	0.00015808
161.347	0.00848606	-0.00254476	0	4.35684e-05
181.347	0.00848606	-0.00228157	0	6.26537e-05
201.347	0.0084288	-0.00198904	0	6.26537e-05
221.347	0.00848606	-0.00184898	0	6.26537e-05
241.347	0.00848606	-0.00162912	0	6.26537e-05
261.347	0.0084288	-0.00179011	0	-1.36875e-05
281.347	0.00846697	-0.00147741	0	0.000138995
301.347	0.00831427	-0.00170586	0	6.26537e-05
321.347	0.00852423	-0.0014818	0	5.39784e-06
341.347	0.00850514	-0.00127448	0	0.00011991
361.347	0.00844788	-0.00118443	0	-3.27727e-05
381.347	0.00840971	-0.000966992	0	2.44831e-05
401.347	0.00848606	-0.000965528	0	-1.36875e-05
421.347	0.0084288	-0.000924993	0	6.26537e-05
441.347	0.00844788	-0.00102006	0	8.1739e-05
461.347	0.00844788	-0.00100543	0	4.35684e-05
481.347	0.00840971	-0.000933583	0	0.000100824
501.347	0.00850514	-0.000863903	0	0.000100824
521.347	0.00844788	-0.000747705	0	-1.36875e-05
541.347	0.0084288	-0.000637362	0	5.39784e-06
561.347	0.00835245	-0.000587726	0	2.44831e-05
581.347	0.00839062	-0.00062438	0	5.39784e-06
601.347	0.00840971	-0.000637553	0	2.44831e-05
621.347	0.00848606	-0.000696288	0	4.35684e-05
641.347	0.00846697	-0.000594726	0	-3.27727e-05
661.347	0.00848606	-0.000542036	0	2.44831e-05
681.347	0.0085624	-0.00068827	0	0.00011991
701.347	0.00844788	-0.000605162	0	0.00011991
721.347	0.00835245	-0.000558454	0	-7.09433e-05
741.347	0.00837153	-0.000581045	0	8.1739e-05
761.347	0.00840971	-0.000631825	0	5.39784e-06
781.347	0.00850514	-0.000650852	0	-0.000109114
801.347	0.00852423	-0.000660461	0	4.35684e-05
821.347	0.00846697	-0.000569272	0	5.39784e-06
841.347	0.0084288	-0.000531918	0	5.39784e-06
861.347	0.0084288	-0.000551327	0	5.39784e-06
881.347	0.0084288	-0.00115662	0	5.39784e-06
901.347	0.00850514	-0.000515373	0	6.26537e-05
921.347	0.00840971	-0.000486801	0	2.44831e-05
941.347	0.00839062	-0.000506528	0	5.39784e-06
961.347	0.00848606	-0.000437356	0	-3.27727e-05
981.347	0.00852423	-0.000409675	0	2.44831e-05
1001.35	0.00835245	-0.00042132	0	-0.000109114
1021.35	0.00833336	-0.000408339	0	2.44831e-05
1041.35	0.00833336	-0.00065168	0	8.1739e-05
1061.35	0.00837153	-0.000361376	0	0.000138995
1081.35	0.00848606	-0.000649707	0	4.35684e-05
1101.35	0.00840971	-0.000388994	0	-3.27727e-05
1121.35	0.00840971	-0.000507228	0	5.39784e-06
1141.35	0.00840971	-0.000559981	0	-7.09433e-05
1161.35	0.00837153	-0.000378557	0	6.26537e-05
1181.35	0.0084288	-0.000381739	0	-3.27727e-05
1201.35	0.00835245	-0.000480883	0	-7.09433e-05
1221.35	0.00837153	-0.000342858	0	4.35684e-05
1241.35	0.00837153	-0.000459247	0	-0.000109114
1261.35	0.00852423	-0.000343558	0	4.35684e-05
1281.35	0.00840971	-0.000319822	0	0.00011991
1301.35	0.00840971	-0.000347885	0	2.44831e-05
1321.35	0.00839062	-0.000367803	0	-3.27727e-05
1341.35	0.0084288	-0.000406684	0	4.35684e-05
1361.35	0.00835245	-0.000522118	0	5.39784e-06
1381.35	0.0084288	-0.000391539	0	2.44831e-05
1401.35	0.0084288	-0.000326568	0	-1.36875e-05
1421.35	0.00840971	-0.000349158	0	4.35684e-05
1441.35	0.00846697	-0.000423293	0	0.000100824
1461.35	0.00840971	-0.000336431	0	0.00011991
1481.35	0.0085624	-0.000412157	0	5.39784e-06
1501.35	0.00844788	-0.00027795	0	4.35684e-05
1521.35	0.00839062	-0.000378176	0	0.000215336
1541.35	0.0084288	-0.000294686	0	5.39784e-06
1561.35	0.00844788	-0.000398157	0	-9.00286e-05
1581.35	0.00840971	-0.000399875	0	5.39784e-06
1601.35	0.00840971	-0.000354058	0	2.44831e-05
1621.35	0.00846697	-0.000319695	0	0.000177165
1641.35	0.00850514	-0.000285396	0	6.26537e-05
1661.35	0.00837153	-0.000331531	0	-3.27727e-05
1681.35	0.00848606	-0.000370667	0	2.44831e-05
1701.35	0.00833336	-0.000279605	0	8.1739e-05
1721.35	0.00844788	-0.000307286	0	2.44831e-05
1741.35	0.00839062	-0.000293795	0	-3.27727e-05
1761.35	0.00846697	-0.000371621	0	-7.09433e-05
1781.35	0.0085624	-0.000290423	0	2.44831e-05
1801.35	0.00835245	-0.00037983	0	5.39784e-06
1821.35	0.00846697	-0.000313013	0	0.000177165
1841.35	0.00840971	-0.000402421	0	2.44831e-05
1860.05	0.00852423	-0.000375248	0	8.1739e-05