Folder: SUMMER-JOB-2024-MATERIALS-PHYSICS/EXPERIMENTAL/DATA/Electrochemical-cycling/S-series (part 9)

File: 2024-07-04_S26_Icell_t1800_C0010_J01_deltaX-109,8mm_12mmLi_02_MB_C02.txt
time/s	Ewe/V	I/mA	error	Ece/V
60.053	2.99035	-0.0250311	0	-0.000581471
60.174	0.00936503	-23.7814	0	5.80953e-05
60.1754	0.00940321	-23.5816	0	0.000153525
60.1766	0.00946047	-23.4142	0	-1.82481e-05
60.1778	0.00932685	-23.2507	0	8.37723e-07
60.1792	0.00940321	-23.0674	0	5.80953e-05
60.181	0.00944138	-22.8415	0	-5.64199e-05
60.1828	0.00938412	-22.627	0	8.37723e-07
60.1846	0.00936503	-22.4176	0	-5.64199e-05
60.1864	0.00934594	-22.2172	0	-1.82481e-05
60.1882	0.00940321	-22.0237	0	-3.7334e-05
60.19	0.00942229	-21.8449	0	-3.7334e-05
60.192	0.00934594	-21.6444	0	8.37723e-07
60.1938	0.00934594	-21.4694	0	-1.82481e-05
60.1958	0.00940321	-21.2855	0	-3.7334e-05
60.1976	0.00951773	-21.1264	0	-3.7334e-05
60.1996	0.00934594	-20.9591	0	1.99236e-05
60.2016	0.00938412	-20.7758	0	8.37723e-07
60.204	0.00940321	-20.588	0	5.80953e-05
60.2062	0.00928868	-20.4162	0	3.90095e-05
60.2084	0.00947956	-20.2501	0	0.000134439
60.211	0.00940321	-20.0656	0	9.62671e-05
60.2132	0.00946047	-19.9039	0	-1.82481e-05
60.216	0.00940321	-19.7137	0	5.80953e-05
60.2184	0.00932685	-19.5552	0	9.62671e-05
60.221	0.00944138	-19.3827	0	-7.55058e-05
60.2238	0.00938412	-19.2084	0	0.000115353
60.2266	0.00942229	-19.034	0	0.000115353
60.2294	0.00947956	-18.8666	0	0.000134439
60.2326	0.00938412	-18.6789	0	3.90095e-05
60.2358	0.00942229	-18.502	0	7.71812e-05
60.2388	0.00940321	-18.3372	0	-5.64199e-05
60.2418	0.00938412	-18.1768	0	3.90095e-05
60.2448	0.00940321	-18.0158	0	-5.64199e-05
60.2482	0.00938412	-17.844	0	-9.45916e-05
60.2514	0.00938412	-17.6836	0	1.99236e-05
60.2548	0.00940321	-17.5162	0	-9.45916e-05
60.2584	0.00953682	-17.3361	0	-7.55058e-05
60.2622	0.00934594	-17.1662	0	-3.7334e-05
60.2656	0.00936503	-17.0001	0	-9.45916e-05
60.2694	0.00940321	-16.8398	0	3.90095e-05
60.273	0.00940321	-16.673	0	1.99236e-05
60.2774	0.00944138	-16.4987	0	-9.45916e-05
60.2812	0.00955591	-16.3332	0	-3.7334e-05
60.2852	0.00936503	-16.1735	0	3.90095e-05
60.2896	0.00940321	-15.9997	0	-1.82481e-05
60.2938	0.00938412	-15.8305	0	3.90095e-05
60.2984	0.00942229	-15.6548	0	1.99236e-05
60.3028	0.00940321	-15.4894	0	5.80953e-05
60.3076	0.00930776	-15.3143	0	7.71812e-05
60.3124	0.00938412	-15.1483	0	0.000115353
60.3172	0.00944138	-14.9815	0	1.99236e-05
60.3224	0.00940321	-14.8084	0	-1.82481e-05
60.3266	0.00949865	-14.6538	0	7.71812e-05
60.332	0.00944138	-14.489	0	8.37723e-07
60.337	0.00949865	-14.333	0	3.90095e-05
60.3422	0.00940321	-14.1657	0	5.80953e-05
60.3476	0.00940321	-14.0066	0	-7.55058e-05
60.3532	0.00934594	-13.8424	0	1.99236e-05
60.3588	0.00938412	-13.6795	0	-1.82481e-05
60.3646	0.00938412	-13.5153	0	9.62671e-05
60.3708	0.00953682	-13.3422	0	0.000153525
60.3768	0.00936503	-13.1812	0	-1.82481e-05
60.3832	0.00934594	-13.0208	0	8.37723e-07
60.3894	0.00946047	-12.8573	0	1.99236e-05
60.3962	0.00946047	-12.6912	0	8.37723e-07
60.4032	0.00932685	-12.5181	0	9.62671e-05
60.41	0.00928868	-12.3545	0	5.80953e-05
60.4168	0.00938412	-12.2005	0	8.37723e-07
60.4234	0.00934594	-12.0459	0	-1.82481e-05
60.4306	0.00946047	-11.8855	0	3.90095e-05
60.438	0.00938412	-11.7226	0	5.80953e-05
60.4454	0.00947956	-11.5661	0	8.37723e-07
60.4528	0.00934594	-11.4114	0	3.90095e-05
60.4604	0.00946047	-11.2568	0	1.99236e-05
60.4682	0.00946047	-11.0958	0	1.99236e-05
60.4768	0.00934594	-10.931	0	3.90095e-05
60.485	0.00944138	-10.7719	0	8.37723e-07
60.4934	0.00946047	-10.6185	0	8.37723e-07
60.5018	0.00940321	-10.4632	0	-5.64199e-05
60.5108	0.00938412	-10.3035	0	8.37723e-07
60.5198	0.00938412	-10.1469	0	5.80953e-05
60.5294	0.00946047	-9.98211	0	-9.45916e-05
60.5384	0.00932685	-9.82556	0	7.71812e-05
60.5484	0.0092505	-9.66264	0	0.000115353
60.5586	0.00942229	-9.50164	0	0.000134439
60.5688	0.00938412	-9.34445	0	1.99236e-05
60.5794	0.00944138	-9.18472	0	-9.45916e-05
60.5902	0.00930776	-9.02181	0	1.99236e-05
60.6018	0.00930776	-8.8608	0	7.71812e-05
60.6132	0.00942229	-8.70044	0	-5.64199e-05
60.6252	0.00936503	-8.54261	0	3.90095e-05
60.6374	0.00940321	-8.38288	0	-5.64199e-05
60.6506	0.00928868	-8.22188	0	0.000153525
60.6636	0.00947956	-8.05896	0	-1.82481e-05
60.6766	0.00938412	-7.9075	0	-1.82481e-05
60.6912	0.00936503	-7.75032	0	0.000115353
60.7064	0.00932685	-7.5874	0	-0.000132763
60.722	0.00936503	-7.4264	0	-1.82481e-05
60.7382	0.00940321	-7.27303	0	9.62671e-05
60.7554	0.00938412	-7.1133	0	7.71812e-05
60.773	0.00938412	-6.9523	0	-3.7334e-05
60.793	0.00947956	-6.79575	0	8.37723e-07
60.814	0.00946047	-6.63729	0	-3.7334e-05
60.8344	0.00942229	-6.48265	0	-1.82481e-05
60.8572	0.00928868	-6.32737	0	8.37723e-07
60.8814	0.00946047	-6.17082	0	-3.7334e-05
60.9086	0.00934594	-6.01172	0	8.37723e-07
60.9362	0.00949865	-5.85708	0	1.99236e-05
60.9668	0.00928868	-5.69862	0	-7.55058e-05
60.999	0.00944138	-5.54271	0	1.99236e-05
61.036	0.00944138	-5.38171	0	5.80953e-05
61.0722	0.00942229	-5.22961	0	1.99236e-05
61.112	0.00923141	-5.07433	0	0.000115353
61.1564	0.00940321	-4.91842	0	9.62671e-05
61.2026	0.00946047	-4.76569	0	-7.55058e-05
61.2524	0.00936503	-4.61041	0	-5.64199e-05
61.3072	0.00932685	-4.45322	0	3.90095e-05
61.361	0.00940321	-4.29922	0	9.62671e-05
61.444	0.00940321	-4.10612	0	7.71812e-05
61.5052	0.00942229	-3.95514	0	0.000115353
61.569	0.00936503	-3.80435	0	5.80953e-05
61.6362	0.00938412	-3.65349	0	5.80953e-05
61.7072	0.00942229	-3.50207	0	0.000134439
61.7814	0.00942229	-3.35147	0	0.000115353
61.8608	0.00944138	-3.19934	0	8.37723e-07
61.9458	0.00938412	-3.04862	0	0.000153525
62.0364	0.00936503	-2.89751	0	-1.82481e-05
62.136	0.00930776	-2.74614	0	5.80953e-05
62.2438	0.00940321	-2.59516	0	-5.64199e-05
62.3648	0.00928868	-2.44469	0	-3.7334e-05
62.5004	0.00940321	-2.2939	0	7.71812e-05
62.6554	0.00936503	-2.14292	0	5.80953e-05
62.834	0.00936503	-1.99168	0	-3.7334e-05
63.0426	0.00932685	-1.84128	0	-1.82481e-05
63.2966	0.00947956	-1.69023	0	3.90095e-05
63.6058	0.00923141	-1.53976	0	0.000134439
63.989	0.00930776	-1.38891	0	3.90095e-05
64.4802	0.00938412	-1.23837	0	0.000115353
65.1242	0.00928868	-1.08796	0	5.80953e-05
65.9956	0.00932685	-0.937236	0	7.71812e-05
67.2264	0.00946047	-0.786891	0	9.62671e-05
69.07	0.00953682	-0.635846	0	1.99236e-05
72.1334	0.00934594	-0.485183	0	1.99236e-05
78.2902	0.00946047	-0.335074	0	-1.82481e-05
95.413	0.00940321	-0.184774	0	0.000115353
125.413	0.00928868	-0.108202	0	-3.7334e-05
155.413	0.00938412	-0.0760233	0	7.71812e-05
185.413	0.00936503	-0.0572828	0	8.37723e-07
215.413	0.00946047	-0.0454682	0	1.99236e-05
245.413	0.00936503	-0.0364243	0	-9.45916e-05
275.413	0.00928868	-0.0296874	0	3.90095e-05
305.413	0.00944138	-0.0245719	0	0.000134439
335.413	0.00928868	-0.0209518	0	0.000153525
365.413	0.00942229	-0.0179445	0	7.71812e-05
395.413	0.00934594	-0.01566	0	9.62671e-05
425.413	0.00938412	-0.0139063	0	-5.64199e-05
455.413	0.00940321	-0.0122964	0	7.71812e-05
485.413	0.00934594	-0.0110733	0	7.71812e-05
515.413	0.00932685	-0.0101468	0	1.99236e-05
545.413	0.00940321	-0.00948441	0	8.37723e-07
575.413	0.00940321	-0.00862854	0	5.80953e-05
605.413	0.00936503	-0.00810801	0	1.99236e-05
635.413	0.00944138	-0.00744877	0	0.000153525
665.413	0.00940321	-0.00702497	0	8.37723e-07
695.413	0.00934594	-0.00663999	0	-5.64199e-05
725.413	0.00932685	-0.0061691	0	-7.55058e-05
755.413	0.00940321	-0.00581021	0	0.000115353
785.413	0.00930776	-0.00569376	0	9.62671e-05
815.413	0.00936503	-0.00538832	0	0.000134439
845.413	0.00934594	-0.00509751	0	5.80953e-05
875.413	0.00938412	-0.00485507	0	0.000115353
905.413	0.00936503	-0.00496006	0	-3.7334e-05
935.413	0.00938412	-0.00448432	0	1.99236e-05
965.413	0.00942229	-0.00432297	0	-5.64199e-05
995.413	0.00947956	-0.00415371	0	9.62671e-05
1025.41	0.00942229	-0.00403789	0	5.80953e-05
1055.41	0.00934594	-0.00386978	0	-7.55058e-05
1085.41	0.00932685	-0.00377382	0	7.71812e-05
1115.41	0.00926959	-0.0036536	0	9.62671e-05
1145.41	0.00940321	-0.00351523	0	8.37723e-07
1175.41	0.00940321	-0.00340526	0	1.99236e-05
1205.41	0.00938412	-0.00329122	0	0.000210782
1235.41	0.00926959	-0.00325944	0	-1.82481e-05
1265.41	0.00930776	-0.00312763	0	7.71812e-05
1295.41	0.00944138	-0.00304231	0	3.90095e-05
1325.41	0.00934594	-0.00300035	0	3.90095e-05
1355.41	0.00940321	-0.00291056	0	1.99236e-05
1385.41	0.00934594	-0.00280339	0	7.71812e-05
1415.41	0.00940321	-0.0027457	0	7.71812e-05
1445.41	0.00936503	-0.00272157	0	0.000115353
1475.41	0.00930776	-0.00259778	0	0.000172611
1505.41	0.00936503	-0.00257601	0	3.90095e-05
1535.41	0.00938412	-0.00251577	0	-5.64199e-05
1565.41	0.00928868	-0.00247839	0	9.62671e-05
1595.41	0.00938412	-0.00241121	0	-5.64199e-05
1625.41	0.00940321	-0.00235868	0	-5.64199e-05
1655.41	0.00932685	-0.00233264	0	1.99236e-05
1685.41	0.00928868	-0.00229354	0	0.000115353
1715.41	0.00940321	-0.00224992	0	8.37723e-07
1745.41	0.00940321	-0.00221878	0	-3.7334e-05
1775.41	0.00930776	-0.00214326	0	7.71812e-05
1805.41	0.00936503	-0.00215199	0	7.71812e-05
1835.41	0.00938412	-0.00207933	0	0.000210782
1860.05	0.00946047	-0.00203762	0	5.80953e-05

File: 2024-07-04_S27_Icell_t1800_C0010_J01_deltaX-109,6mm_12mmLi_02_MB_C03.txt
time/s	Ewe/V	I/mA	error	Ece/V
60.053	2.91403	-0.0250202	0	-0.000486187
60.174	0.00948462	-27.4441	0	2.74886e-05
60.175	0.00940827	-27.211	0	6.566e-05
60.1758	0.00946554	-27.0149	0	-1.06828e-05
60.177	0.00946554	-26.7513	0	4.65743e-05
60.178	0.00940827	-26.5291	0	-8.70256e-05
60.1792	0.00931284	-26.2726	0	6.566e-05
60.1804	0.00938919	-26.0274	0	6.566e-05
60.1816	0.0095228	-25.7829	0	2.74886e-05
60.1828	0.00946554	-25.5346	0	2.74886e-05
60.184	0.00933192	-25.3041	0	6.566e-05
60.1852	0.00940827	-25.0781	0	-4.88542e-05
60.1864	0.00950371	-24.8476	0	-2.97685e-05
60.1876	0.00938919	-24.6337	0	8.4029e-06
60.1888	0.00942736	-24.4268	0	-0.000106111
60.19	0.00940827	-24.2122	0	-0.000106111
60.1912	0.00948462	-24.011	0	-2.97685e-05
60.1924	0.00940827	-23.8143	0	6.566e-05
60.1936	0.00946554	-23.6137	0	0.000142003
60.1948	0.00940827	-23.4214	0	0.000180174
60.196	0.00940827	-23.2323	0	8.4029e-06
60.1972	0.00938919	-23.0566	0	-4.88542e-05
60.1984	0.0093701	-22.8688	0	-4.88542e-05
60.1996	0.00940827	-22.6899	0	-2.97685e-05
60.2008	0.0095228	-22.5193	0	0.000103831
60.202	0.00944645	-22.3493	0	-6.79399e-05
60.2032	0.00942736	-22.185	0	8.47457e-05
60.2048	0.00935101	-21.9609	0	0.000103831
60.2062	0.00942736	-21.7718	0	0.000142003
60.2074	0.0093701	-21.6043	0	-1.06828e-05
60.209	0.00950371	-21.3999	0	2.74886e-05
60.2106	0.00942736	-21.1975	0	4.65743e-05
60.2122	0.00954188	-21.0058	0	8.4029e-06
60.2138	0.0093701	-20.811	0	0.000122917
60.2156	0.00929375	-20.6022	0	-1.06828e-05
60.217	0.00948462	-20.4354	0	-1.06828e-05
60.2188	0.00940827	-20.2393	0	-6.79399e-05
60.2206	0.00942736	-20.0317	0	-6.79399e-05
60.2224	0.00942736	-19.8375	0	8.4029e-06
60.2242	0.00938919	-19.6529	0	6.566e-05
60.226	0.00946554	-19.4542	0	4.65743e-05
60.2278	0.00944645	-19.2734	0	0.00019926
60.2296	0.00944645	-19.0907	0	-0.000106111
60.2314	0.00940827	-18.9118	0	6.566e-05
60.2332	0.00935101	-18.7411	0	2.74886e-05
60.2352	0.00954188	-18.5469	0	0.00019926
60.237	0.0095228	-18.3846	0	-8.70256e-05
60.239	0.00948462	-18.1993	0	-2.97685e-05
60.241	0.00950371	-18.0223	0	2.74886e-05
60.2428	0.00948462	-17.8587	0	8.4029e-06
60.245	0.00942736	-17.6778	0	-2.97685e-05
60.2468	0.00938919	-17.5212	0	2.74886e-05
60.2488	0.0093701	-17.3525	0	8.47457e-05
60.251	0.00946554	-17.1723	0	0.000142003
60.2532	0.00938919	-16.9991	0	-4.88542e-05
60.2552	0.00940827	-16.8368	0	0.000103831
60.2574	0.0093701	-16.6693	0	0.000103831
60.2598	0.00948462	-16.4936	0	-2.97685e-05
60.2622	0.00944645	-16.3153	0	-2.97685e-05
60.2646	0.00954188	-16.1396	0	-2.97685e-05
60.267	0.00940827	-15.9791	0	-8.70256e-05
60.2694	0.00942736	-15.8041	0	-8.70256e-05
60.2718	0.0095228	-15.6462	0	-2.97685e-05
60.2742	0.00944645	-15.4832	0	4.65743e-05
60.2768	0.00938919	-15.3068	0	-1.06828e-05
60.2794	0.0093701	-15.1419	0	-1.06828e-05
60.2822	0.0095228	-14.9706	0	8.4029e-06
60.2848	0.00948462	-14.8083	0	-1.06828e-05
60.2874	0.00942736	-14.6504	0	8.47457e-05
60.2906	0.00935101	-14.4632	0	4.65743e-05
60.2934	0.00944645	-14.3015	0	-0.000144283
60.2964	0.00948462	-14.1366	0	-2.97685e-05
60.2996	0.00946554	-13.9596	0	4.65743e-05
60.3024	0.00946554	-13.801	0	4.65743e-05
60.3058	0.00950371	-13.6272	0	-1.06828e-05
60.3092	0.00959915	-13.4515	0	0.000103831
60.3128	0.00946554	-13.2668	0	2.74886e-05
60.3164	0.00950371	-13.0988	0	0.000122917
60.32	0.0093701	-12.9313	0	-2.97685e-05
60.3236	0.0095228	-12.7683	0	6.566e-05
60.3272	0.00948462	-12.6053	0	0.000142003
60.331	0.00950371	-12.4449	0	-2.97685e-05
60.3346	0.00940827	-12.2857	0	0.000161088
60.3388	0.00948462	-12.1087	0	8.4029e-06
60.343	0.00946554	-11.9425	0	0.000142003
60.3472	0.00948462	-11.7789	0	-1.06828e-05
60.3516	0.00938919	-11.6172	0	-4.88542e-05
60.3562	0.0095228	-11.4523	0	0.000122917
60.3606	0.00942736	-11.2855	0	4.65743e-05
60.3656	0.0093701	-11.1256	0	-2.97685e-05
60.3704	0.00944645	-10.9595	0	2.74886e-05
60.3756	0.00946554	-10.7997	0	-8.70256e-05
60.3804	0.00938919	-10.6405	0	2.74886e-05
60.3862	0.00946554	-10.4705	0	-2.97685e-05
60.3922	0.0093701	-10.296	0	-2.97685e-05
60.3984	0.00946554	-10.1292	0	0.000142003
60.4044	0.00944645	-9.97259	0	-1.06828e-05
60.4106	0.00935101	-9.80769	0	6.566e-05
60.417	0.00933192	-9.64724	0	2.74886e-05
60.424	0.0095228	-9.48489	0	-1.06828e-05
60.4312	0.00933192	-9.3238	0	8.4029e-06
60.4388	0.00948462	-9.16208	0	0.000180174
60.4464	0.00948462	-9.00418	0	2.74886e-05
60.4544	0.00942736	-8.83992	0	-1.06828e-05
60.4634	0.00944645	-8.67056	0	-8.70256e-05
60.4724	0.00950371	-8.51138	0	-2.97685e-05
60.481	0.0093701	-8.35667	0	-2.97685e-05
60.491	0.0093701	-8.19813	0	2.74886e-05
60.5008	0.00935101	-8.0415	0	-1.06828e-05
60.511	0.00933192	-7.88742	0	2.74886e-05
60.5224	0.00946554	-7.72443	0	0.000103831
60.5344	0.00946554	-7.56781	0	-2.97685e-05
60.5468	0.00956097	-7.41182	0	-4.88542e-05
60.5596	0.00948462	-7.25583	0	8.4029e-06
60.5728	0.0093701	-7.09665	0	0.000142003
60.5874	0.00940827	-6.93493	0	-6.79399e-05
60.6032	0.00946554	-6.78085	0	-4.88542e-05
60.6188	0.00946554	-6.62805	0	8.4029e-06
60.6354	0.00942736	-6.47333	0	8.4029e-06
60.6532	0.0093701	-6.31034	0	8.47457e-05
60.673	0.00944645	-6.15371	0	6.566e-05
60.6938	0.00938919	-5.98881	0	4.65743e-05
60.715	0.0095228	-5.83537	0	6.566e-05
60.739	0.00946554	-5.66792	0	-0.000182454
60.7636	0.00950371	-5.51511	0	6.566e-05
60.789	0.00946554	-5.35912	0	2.74886e-05
60.8174	0.00940827	-5.20186	0	8.47457e-05
60.846	0.00938919	-5.04268	0	-6.79399e-05
60.879	0.0093701	-4.88096	0	-1.06828e-05
60.913	0.00946554	-4.72816	0	0.000161088
60.949	0.00944645	-4.57344	0	4.65743e-05
61.018	0.00946554	-4.31545	0	-2.97685e-05
61.0612	0.00956097	-4.16358	0	6.566e-05
61.1078	0.00946554	-4.01273	0	0.000122917
61.1584	0.00933192	-3.86131	0	0.000122917
61.2132	0.00938919	-3.71052	0	8.4029e-06
61.2738	0.0093701	-3.55884	0	8.4029e-06
61.3396	0.00940827	-3.40787	0	-0.000106111
61.4118	0.00948462	-3.25765	0	8.47457e-05
61.4928	0.00954188	-3.10521	0	6.566e-05
61.5824	0.00950371	-2.95461	0	-6.79399e-05
61.6826	0.00942736	-2.80325	0	6.566e-05
61.796	0.00954188	-2.65285	0	6.566e-05
61.924	0.00946554	-2.50168	0	-2.97685e-05
62.0704	0.00935101	-2.35102	0	4.65743e-05
62.24	0.00944645	-2.20036	0	2.74886e-05
62.4388	0.00942736	-2.05002	0	-4.88542e-05
62.6722	0.00940827	-1.89961	0	8.47457e-05
62.9518	0.00940827	-1.74901	0	-1.06828e-05
63.2912	0.00942736	-1.59835	0	-4.88542e-05
63.7122	0.00938919	-1.44814	0	-1.06828e-05
64.2496	0.0093701	-1.2978	0	8.47457e-05
64.9508	0.00946554	-1.14726	0	2.74886e-05
65.8898	0.00940827	-0.99635	0	-1.06828e-05
67.2196	0.0093701	-0.846135	0	0.000142003
69.243	0.00935101	-0.695347	0	6.566e-05
72.626	0.00948462	-0.545069	0	-1.06828e-05
79.3596	0.00940827	-0.394991	0	2.74886e-05
96.7842	0.00950371	-0.244897	0	-4.88542e-05
126.784	0.00935101	-0.157624	0	2.74886e-05
156.784	0.00942736	-0.117981	0	8.4029e-06
186.784	0.00946554	-0.0936125	0	8.47457e-05
216.784	0.00938919	-0.0789874	0	8.4029e-06
246.784	0.00946554	-0.0677227	0	-2.97685e-05
276.784	0.00942736	-0.0591692	0	0.000103831
306.784	0.00935101	-0.0524549	0	8.4029e-06
336.784	0.00944645	-0.0466889	0	0.000161088
366.784	0.00940827	-0.0423125	0	6.566e-05
396.784	0.00929375	-0.0386967	0	6.566e-05
426.784	0.00935101	-0.0355358	0	-0.000125197
456.784	0.00938919	-0.0331033	0	-1.06828e-05
486.784	0.00942736	-0.0309133	0	6.566e-05
516.784	0.0093701	-0.0291076	0	2.74886e-05
546.784	0.00935101	-0.0275679	0	-6.79399e-05
576.784	0.00948462	-0.0262241	0	-6.79399e-05
606.784	0.00950371	-0.0250636	0	4.65743e-05
636.784	0.00944645	-0.0239743	0	4.65743e-05
666.784	0.00948462	-0.0230186	0	-2.97685e-05
696.784	0.00944645	-0.022285	0	-8.70256e-05
726.784	0.00942736	-0.0215222	0	6.566e-05
756.784	0.00944645	-0.020912	0	4.65743e-05
786.784	0.00938919	-0.0202745	0	8.4029e-06
816.784	0.00935101	-0.0194753	0	-1.06828e-05
846.784	0.00940827	-0.0191877	0	-1.06828e-05
876.784	0.00940827	-0.0185184	0	-1.06828e-05
906.784	0.00940827	-0.0182053	0	4.65743e-05
936.784	0.00933192	-0.0177447	0	2.74886e-05
966.784	0.00938919	-0.0173254	0	2.74886e-05
996.784	0.00944645	-0.0170085	0	-1.06828e-05
1026.78	0.00944645	-0.0166631	0	8.47457e-05
1056.78	0.00944645	-0.0163716	0	-4.88542e-05
1086.78	0.00944645	-0.0160503	0	8.4029e-06
1116.78	0.0093701	-0.0157188	0	-4.88542e-05
1146.78	0.00940827	-0.0155598	0	-2.97685e-05
1176.78	0.00944645	-0.0153116	0	-0.000106111
1206.78	0.00940827	-0.0150069	0	-1.06828e-05
1236.78	0.00933192	-0.0147282	0	6.566e-05
1266.78	0.00944645	-0.0146328	0	2.74886e-05
1296.78	0.00942736	-0.0144406	0	0.000142003
1326.78	0.00940827	-0.0141371	0	4.65743e-05
1356.78	0.00944645	-0.0140207	0	0.000103831
1386.78	0.00944645	-0.01384	0	4.65743e-05
1416.78	0.00940827	-0.0136376	0	0.000103831
1446.78	0.00933192	-0.0134519	0	-4.88542e-05
1476.78	0.00935101	-0.0133062	0	8.4029e-06
1506.78	0.00940827	-0.0131197	0	8.4029e-06
1536.78	0.00948462	-0.0131713	0	0.000122917
1566.78	0.00938919	-0.0130154	0	6.566e-05
1596.78	0.00938919	-0.0128958	0	2.74886e-05
1626.78	0.00931284	-0.0127221	0	0.000122917
1656.78	0.0093701	-0.0126826	0	-6.79399e-05
1686.78	0.00950371	-0.0124892	0	-6.79399e-05
1716.78	0.00946554	-0.01232	0	2.74886e-05
1746.78	0.00938919	-0.0122506	0	-1.06828e-05
1776.78	0.00938919	-0.0121233	0	2.74886e-05
1806.78	0.00948462	-0.0119535	0	-2.97685e-05
1836.78	0.00946554	-0.011886	0	2.74886e-05
1860.05	0.00942736	-0.0117989	0	0.000161088