Folder: SUMMER-JOB-2024-MATERIALS-PHYSICS/EXPERIMENTAL/DATA/Electrochemical-cycling/S-series

Note: EXPERIMENTAL/DATA/Electrochemical-cycling/S-series/2024-06-19_S09_Icell_t1800_C0030_J01_01_OCV_C09.txt
time/s	<Ewe>/V	error	<Ece>/V	
9.999999747378752E+000	2.8869607E+000	0	2.7663384E-005
1.999999949475750E+001	2.8869495E+000	0	2.5016379E-005
2.999999924213625E+001	2.8870385E+000	0	2.5700014E-005
3.999999898951501E+001	2.8873332E+000	0	2.3102124E-005
4.999999873689376E+001	2.8883600E+000	0	2.2659728E-005
5.999979848427756E+001	2.8898046E+000	0	2.1892829E-005

Note: EXPERIMENTAL/DATA/Electrochemical-cycling/S-series/2024-06-25_S15_Icell_t1800_C0030_J01_deltaX-110,2mm_01_OCV_C04.txt
time/s	<Ewe/V>	error	
9.999999747378752E+000	2.9487252E+000	0
1.999999949475750E+001	2.9482398E+000	0
2.999999924213625E+001	2.9477422E+000	0
3.999999898951501E+001	2.9472470E+000	0
4.999999873689376E+001	2.9467623E+000	0
5.999979848427756E+001	2.9462740E+000	0

Note: EXPERIMENTAL/DATA/Electrochemical-cycling/S-series/2024-06-27_S19_Icell_t1800_C0010_J01_deltaX-109,9mm_01_OCV_C06.txt
time/s	<Ewe/V>	error	<Ece>/V	Ewe-Ece/V	
9.999999747378752E+000	2.9156740E+000	0	-4.9798684E-005	2.9157238E+000
1.999999949475750E+001	2.9147582E+000	0	-4.9971182E-005	2.9148083E+000
2.999999924213625E+001	2.9138691E+000	0	-5.2061507E-005	2.9139211E+000
3.999999898951501E+001	2.9129713E+000	0	-5.1075713E-005	2.9130223E+000
4.999999873689376E+001	2.9120746E+000	0	-5.0772185E-005	2.9121253E+000
5.999979848427756E+001	2.9111900E+000	0	-4.5946192E-005	2.9112360E+000

Note: EXPERIMENTAL/DATA/Electrochemical-cycling/S-series/2024-07-02_S21_Icell_t1800_C0000_J01_deltaX-110,1mm_plating-stripping_01_OCV_C03.txt
time/s	<Ewe/V>	error	
9.999999747378752E+000	2.5585470E+000	0
1.999999949475750E+001	2.5585394E+000	0
2.999999924213625E+001	2.5585227E+000	0
3.999999898951501E+001	2.5585184E+000	0
4.999999873689376E+001	2.5585110E+000	0
5.999979848427756E+001	2.5585043E+000	0

Note: EXPERIMENTAL/DATA/Electrochemical-cycling/S-series/2024-07-02_S22_Icell_t0000_C0050_J01_deltaX-110,1mm_LFP_01_OCV_C05.txt
time/s	<Ewe/V>	error	
9.999999747378752E+000	-2.9709509E-001	0
1.999999949475750E+001	-2.9710495E-001	0
2.999999924213625E+001	-2.9711300E-001	0
3.999999898951501E+001	-2.9712006E-001	0
4.999999873689376E+001	-2.9712787E-001	0
5.999979848427756E+001	-2.9713562E-001	0

Note: EXPERIMENTAL/DATA/Electrochemical-cycling/S-series/2024-07-02_S24_TPcell_t1800_C0500_J01_newScript_01_OCV_C02.txt
time/s	<Ewe>/V	error	
9.999999747378752E+000	2.8192236E+000	0
1.999999949475750E+001	2.8191888E+000	0
2.999999924213625E+001	2.8191593E+000	0
3.999999898951501E+001	2.8191257E+000	0
4.999999873689376E+001	2.8190913E+000	0
5.999979848427756E+001	2.8190491E+000	0

Note: EXPERIMENTAL/DATA/Electrochemical-cycling/S-series/2024-07-04_S26_Icell_t1800_C0010_J01_deltaX-109,8mm_12mmLi_01_OCV_C02.txt
time/s	<Ewe/V>	error	<Ece>/V	
9.999999747378752E+000	3.0000470E+000	0	6.3052212E-006
1.999999949475750E+001	2.9998531E+000	0	7.1952231E-006
2.999999924213625E+001	2.9996624E+000	0	7.7929926E-006
3.999999898951501E+001	2.9994552E+000	0	1.0778214E-006
4.999999873689376E+001	2.9992554E+000	0	3.2268902E-006
5.999979848427756E+001	2.9990613E+000	0	5.1210573E-006

Note: EXPERIMENTAL/DATA/Electrochemical-cycling/S-series/2024-07-04_S28_Icell_t1800_C0010_J01_deltaX-110,0mm_12mmLi-polished_01_OCV_C05.txt
time/s	<Ewe/V>	error	<Ece>/V	
9.999999747378752E+000	2.9030886E+000	0	-3.8841044E-005
1.999999949475750E+001	2.9028499E+000	0	-3.6705238E-005
2.999999924213625E+001	2.9026110E+000	0	-3.5212586E-005
3.999999898951501E+001	2.9023719E+000	0	-3.7045382E-005
4.999999873689376E+001	2.9021380E+000	0	-3.3713059E-005
5.999979848427756E+001	2.9019034E+000	0	-3.4394259E-005

File: 2024-06-14_S01_Icell_t0012_C0500_J01_deltaX-110,1mm_02_MB_C06.txt
time/s	Ewe/V	I/mA	error
60.053	2.38431	-0.0250234	0
60.1432	0.00938945	-8.51784	0
60.1436	0.00937036	-8.46342	0
60.1442	0.00948491	-8.38723	0
60.1448	0.00948491	-8.31301	0
60.1452	0.00948491	-8.26215	0
60.1456	0.00944673	-8.21142	0
60.146	0.00946582	-8.15897	0
60.1466	0.00940854	-8.08113	0
60.1472	0.00942764	-8.0057	0
60.1478	0.00933218	-7.93581	0
60.1484	0.0095231	-7.87089	0
60.149	0.009504	-7.79686	0
60.1496	0.0095231	-7.72964	0
60.1502	0.00938945	-7.66179	0
60.1508	0.00944673	-7.59362	0
60.1514	0.00944673	-7.52698	0
60.152	0.00937036	-7.46212	0
60.1526	0.00944673	-7.40088	0
60.1532	0.00938945	-7.33252	0
60.1538	0.00942764	-7.26543	0
60.1544	0.00942764	-7.20293	0
60.155	0.00942764	-7.14125	0
60.1556	0.00937036	-7.07683	0
60.1562	0.00946582	-7.02101	0
60.1568	0.00948491	-6.96283	0
60.1574	0.009504	-6.90421	0
60.158	0.00940854	-6.84482	0
60.1586	0.00956128	-6.79021	0
60.1592	0.0095231	-6.73916	0
60.16	0.00956128	-6.6764	0
60.1606	0.00935127	-6.6214	0
60.1612	0.00946582	-6.56564	0
60.1618	0.00940854	-6.50632	0
60.1624	0.00948491	-6.45553	0
60.163	0.00946582	-6.3934	0
60.1638	0.00942764	-6.3323	0
60.1644	0.00946582	-6.27883	0
60.165	0.00948491	-6.22855	0
60.1658	0.00946582	-6.16585	0
60.1666	0.00948491	-6.10487	0
60.1674	0.00937036	-6.04096	0
60.168	0.00935127	-5.98877	0
60.1688	0.00931308	-5.93384	0
60.1696	0.009504	-5.87719	0
60.1704	0.00942764	-5.81258	0
60.1712	0.00942764	-5.75816	0
60.172	0.00954219	-5.69966	0
60.1728	0.00938945	-5.64556	0
60.1736	0.00946582	-5.58955	0
60.1744	0.00948491	-5.53742	0
60.1752	0.00937036	-5.48465	0
60.176	0.00940854	-5.42984	0
60.177	0.00937036	-5.37148	0
60.178	0.00938945	-5.31164	0
60.1788	0.00942764	-5.26072	0
60.1798	0.00940854	-5.20452	0
60.1806	0.00933218	-5.15436	0
60.1816	0.00948491	-5.09726	0
60.1826	0.00942764	-5.04093	0
60.1836	0.009504	-4.98473	0
60.1846	0.00944673	-4.93279	0
60.1856	0.00935127	-4.8783	0
60.1866	0.00944673	-4.82388	0
60.1876	0.00944673	-4.77016	0
60.1888	0.00942764	-4.71453	0
60.19	0.00935127	-4.65635	0
60.191	0.00948491	-4.60568	0
60.1922	0.009504	-4.54731	0
60.1934	0.00948491	-4.49467	0
60.1946	0.009504	-4.43802	0
60.1958	0.00942764	-4.3871	0
60.197	0.00948491	-4.3337	0
60.1984	0.00946582	-4.27711	0
60.1996	0.00944673	-4.22664	0
60.201	0.00933218	-4.17253	0
60.2024	0.00938945	-4.11728	0
60.2038	0.00940854	-4.06267	0
60.2052	0.00937036	-4.00818	0
60.2068	0.009504	-3.95402	0
60.2082	0.00954219	-3.90354	0
60.2098	0.00948491	-3.84893	0
60.2114	0.00946582	-3.79399	0
60.213	0.00938945	-3.74123	0
60.2148	0.00942764	-3.68674	0
60.2166	0.00948491	-3.62971	0
60.2184	0.00946582	-3.57732	0
60.2202	0.00937036	-3.52367	0
60.222	0.00946582	-3.47357	0
60.2268	0.00942764	-3.42131	0
60.2288	0.00948491	-3.36594	0
60.2308	0.00946582	-3.31221	0
60.2328	0.00933218	-3.26104	0
60.235	0.00940854	-3.20725	0
60.2372	0.00938945	-3.15512	0
60.2394	0.00940854	-3.10382	0
60.2418	0.009504	-3.05022	0
60.2442	0.00942764	-2.99994	0
60.2468	0.0095231	-2.94654	0
60.2494	0.009504	-2.89517	0
60.252	0.009504	-2.84425	0
60.2548	0.00946582	-2.79275	0
60.2576	0.00948491	-2.74228	0
60.2606	0.00942764	-2.69072	0
60.2638	0.00946582	-2.63744	0
60.267	0.00935127	-2.58678	0
60.2704	0.00940854	-2.53579	0
60.274	0.00944673	-2.48372	0
60.2778	0.00946582	-2.43172	0
60.2816	0.009504	-2.38137	0
60.2856	0.00935127	-2.33051	0
60.2898	0.00946582	-2.27978	0
60.2942	0.00937036	-2.22912	0
60.2988	0.00938945	-2.17909	0
60.3038	0.0095231	-2.12747	0
60.309	0.00938945	-2.07667	0
60.3144	0.00946582	-2.0255	0
60.3204	0.00954219	-1.97337	0
60.3264	0.00944673	-1.92244	0
60.333	0.00937036	-1.87171	0
60.3398	0.00938945	-1.82117	0
60.347	0.00948491	-1.77102	0
60.3546	0.00944673	-1.72099	0
60.3628	0.00946582	-1.67	0
60.3716	0.00938945	-1.61882	0
60.381	0.00954219	-1.56829	0
60.3912	0.00958037	-1.51615	0
60.4022	0.009504	-1.46562	0
60.4138	0.00940854	-1.41527	0
60.4264	0.00942764	-1.36409	0
60.4398	0.00937036	-1.3133	0
60.4544	0.00946582	-1.26231	0
60.4702	0.00948491	-1.21203	0
60.4868	0.00946582	-1.16187	0
60.5052	0.00948491	-1.11184	0
60.5252	0.00948491	-1.06136	0
60.547	0.00946582	-1.01127	0
60.5712	0.009504	-0.961176	0
60.5976	0.00942764	-0.911145	0
60.6272	0.00946582	-0.86086	0
60.6604	0.00944673	-0.810448	0
60.6976	0.00942764	-0.759909	0
60.7408	0.0095231	-0.709815	0
60.79	0.00958037	-0.659276	0
60.8468	0.00944673	-0.609182	0
60.9132	0.00961856	-0.55896	0
60.9956	0.00942764	-0.508867	0
61.093	0.00946582	-0.458773	0
61.2262	0.00937036	-0.408692	0
61.3878	0.00944673	-0.358681	0
61.6064	0.00942764	-0.308606	0
61.916	0.009504	-0.258512	0
62.3852	0.00946582	-0.208373	0
63.176	0.00956128	-0.158337	0
64.7618	0.00938945	-0.108306	0
69.3664	0.00944673	-0.0582312	0
72.0528	0.00942764	-0.0465844	0

File: 2024-06-14_S01_Icell_t0012_C0500_J01_deltaX-110,1mm_04_CP_C06.txt
time/s	Ewe/V	I/mA	error
72.2058	0.0434758	-0.194766	0
72.2062	0.0310392	-0.195983	0
72.2066	0.0273353	-0.19598	0
72.2072	0.0245097	-0.195982	0
72.208	0.0217223	-0.195983	0
72.2088	0.0193931	-0.195987	0
72.21	0.0163766	-0.195983	0
72.2112	0.0135701	-0.195983	0
72.2124	0.0109545	-0.195983	0
72.2136	0.00854892	-0.195987	0
72.2148	0.0062197	-0.195982	0
72.216	0.00385231	-0.195979	0
72.2174	0.00125581	-0.195982	0
72.2188	-0.00116886	-0.195987	0
72.2204	-0.00368899	-0.195985	0
72.2218	-0.0060182	-0.195987	0
72.2232	-0.00829014	-0.195978	0
72.2246	-0.010543	-0.195978	0
72.2262	-0.0127385	-0.195986	0
72.2278	-0.0150869	-0.195981	0
72.2294	-0.0173588	-0.195984	0
72.2312	-0.0197071	-0.19598	0
72.233	-0.0221127	-0.195982	0
72.2346	-0.0243273	-0.195978	0
72.2364	-0.0265993	-0.195981	0
72.2384	-0.0290048	-0.195984	0
72.2404	-0.0312195	-0.195985	0
72.2424	-0.033606	-0.195989	0
72.2446	-0.0359925	-0.195974	0
72.2466	-0.0381308	-0.195984	0
72.2488	-0.0403645	-0.19598	0
72.251	-0.0426556	-0.19598	0
72.2534	-0.0449848	-0.195985	0
72.256	-0.0472185	-0.195978	0
72.2584	-0.0493377	-0.19598	0
72.261	-0.0515715	-0.195983	0
72.2636	-0.0537861	-0.19598	0
72.2664	-0.0560008	-0.195983	0
72.2694	-0.0581773	-0.195985	0
72.2724	-0.0603919	-0.195983	0
72.2756	-0.0627211	-0.195989	0
72.2792	-0.0649358	-0.195986	0
72.2828	-0.0671695	-0.195987	0
72.2864	-0.0692887	-0.195987	0
72.2902	-0.0713698	-0.195986	0
72.2942	-0.0735081	-0.195982	0
72.2986	-0.0756845	-0.195977	0
72.3038	-0.0779183	-0.19598	0
72.3082	-0.0799611	-0.195983	0
72.3136	-0.0821758	-0.19598	0
72.3196	-0.0843904	-0.195983	0
72.3256	-0.0864905	-0.195983	0
72.3324	-0.0885525	-0.19598	0
72.3396	-0.0906144	-0.195983	0
72.3474	-0.0926763	-0.195981	0
72.3554	-0.0947001	-0.195984	0
72.3648	-0.0968383	-0.195978	0
72.375	-0.0989003	-0.195985	0
72.3858	-0.100981	-0.195989	0
72.3986	-0.103062	-0.195982	0
72.4114	-0.105143	-0.195985	0
72.4272	-0.10732	-0.195985	0
72.4438	-0.109439	-0.19599	0
72.4622	-0.111558	-0.195986	0
72.4814	-0.11362	-0.195987	0
72.5028	-0.115682	-0.195989	0
72.5262	-0.117782	-0.195974	0
72.5526	-0.119863	-0.19598	0
72.5782	-0.121944	-0.195985	0
72.6082	-0.124063	-0.195982	0
72.6394	-0.126087	-0.195985	0
72.6704	-0.12813	-0.195987	0
72.704	-0.13023	-0.195983	0
72.7414	-0.132292	-0.195988	0
72.7782	-0.134335	-0.195988	0
72.818	-0.136454	-0.195982	0
72.8612	-0.138535	-0.195982	0
72.8998	-0.140578	-0.195983	0
72.9472	-0.142621	-0.19599	0
72.9938	-0.144644	-0.19599	0
73.0422	-0.146687	-0.195983	0
73.0926	-0.14873	-0.195983	0
73.1512	-0.150888	-0.195978	0
73.2124	-0.15293	-0.195977	0
73.2806	-0.15503	-0.195983	0
73.36	-0.157054	-0.195978	0
73.4606	-0.159078	-0.195987	0
73.8852	-0.159078	-0.195985	0
74.0248	-0.157054	-0.195984	0
74.1542	-0.154992	-0.195982	0
74.2756	-0.152949	-0.195985	0
74.3952	-0.150907	-0.195986	0
74.5434	-0.148845	-0.195981	0
74.7086	-0.146821	-0.19598	0
74.9008	-0.144702	-0.195986	0
75.1426	-0.14264	-0.195985	0
75.4346	-0.140597	-0.195986	0
75.808	-0.138573	-0.195983	0
76.3122	-0.136511	-0.195988	0
77.0954	-0.134468	-0.195982	0
78.2406	-0.132445	-0.195992	0
80.3752	-0.130421	-0.195992	0
84.4736	-0.128359	-0.195992	0
94.3994	-0.126335	-0.195982	0
112.287	-0.124579	-0.195987	0
132.287	-0.123109	-0.195985	0
152.287	-0.121772	-0.195989	0
172.287	-0.120646	-0.195989	0
192.287	-0.119424	-0.195996	0
212.287	-0.11845	-0.195992	0
232.287	-0.117324	-0.195991	0
252.287	-0.116408	-0.195985	0
272.287	-0.115491	-0.19599	0
292.287	-0.114479	-0.195988	0
312.287	-0.113677	-0.195983	0
332.287	-0.112876	-0.19599	0
352.287	-0.112188	-0.195989	0
372.287	-0.111253	-0.195982	0
392.287	-0.110642	-0.195991	0
412.287	-0.109878	-0.195989	0
432.287	-0.109305	-0.19599	0
452.287	-0.108637	-0.195989	0
472.287	-0.107873	-0.19599	0
492.287	-0.107377	-0.195983	0
512.287	-0.106766	-0.195988	0
532.287	-0.106308	-0.195991	0
552.287	-0.105831	-0.195987	0
572.287	-0.105239	-0.195989	0
592.287	-0.104628	-0.195983	0
612.287	-0.104399	-0.195986	0
632.287	-0.103826	-0.195991	0
652.287	-0.103616	-0.195989	0
672.287	-0.103024	-0.19598	0
692.287	-0.102757	-0.195989	0
712.287	-0.10228	-0.19599	0
732.287	-0.101955	-0.195987	0
752.287	-0.10163	-0.195993	0
772.287	-0.101306	-0.19598	0
792.287	-0.101058	-0.195984	0
812.287	-0.100599	-0.19599	0
832.287	-0.100294	-0.195988	0
852.287	-0.0999885	-0.195985	0
872.287	-0.0997212	-0.195987	0
892.287	-0.0994158	-0.195983	0
912.287	-0.0990721	-0.195992	0
932.287	-0.0985566	-0.19599	0
952.287	-0.0984612	-0.195987	0
972.287	-0.0980984	-0.19599	0
992.287	-0.0979266	-0.195984	0
1012.29	-0.0976402	-0.195989	0
1032.29	-0.0975447	-0.195987	0
1052.29	-0.0970102	-0.195988	0
1072.29	-0.0966474	-0.195983	0
1092.29	-0.0965329	-0.195987	0
1112.29	-0.096342	-0.195988	0
1132.29	-0.0959219	-0.195992	0
1152.29	-0.0957501	-0.195992	0
1172.29	-0.0955401	-0.195987	0
1192.29	-0.095311	-0.195982	0
1212.29	-0.0950246	-0.195985	0
1232.29	-0.0947001	-0.195993	0
1252.29	-0.0944137	-0.195993	0
1272.29	-0.0943755	-0.19599	0
1292.29	-0.0941082	-0.195987	0
1312.29	-0.0939746	-0.195987	0
1332.29	-0.0936882	-0.195988	0
1352.29	-0.0932873	-0.19599	0
1372.29	-0.0930963	-0.195988	0
1392.29	-0.0929436	-0.195991	0
1412.29	-0.0927718	-0.195985	0
1432.29	-0.0925236	-0.195988	0
1452.29	-0.0922754	-0.195984	0
1472.29	-0.0920845	-0.195985	0
1492.29	-0.091989	-0.195989	0
1512.29	-0.0917026	-0.195984	0
1532.29	-0.0916263	-0.195986	0
1552.29	-0.091359	-0.195985	0
1572.29	-0.0910726	-0.195985	0
1592.29	-0.0909771	-0.195985	0
1612.29	-0.0907289	-0.195993	0
1632.29	-0.0905953	-0.195986	0
1652.29	-0.090328	-0.195987	0
1672.29	-0.0901562	-0.195987	0
1692.29	-0.0900034	-0.19599	0
1712.29	-0.0897934	-0.195987	0
1732.29	-0.0895834	-0.195987	0
1752.29	-0.0895071	-0.195984	0
1772.29	-0.0891825	-0.195986	0
1792.29	-0.0891443	-0.195987	0
1812.29	-0.0889152	-0.195994	0
1832.29	-0.0887434	-0.195987	0
1852.29	-0.0885143	-0.195991	0
1872.21	-0.0883425	-0.195983	0

File: 2024-06-14_S03_Icell_t1800_C0500_J01_deltaX-110,0mm_04_CP_C04.txt
time/s	Ewe/V	I/mA	error
1860.21	-0.000685482	-0.194732	0
1860.21	-0.00840352	-0.195979	0
1860.21	-0.0111143	-0.195981	0
1860.21	-0.0147414	-0.195981	0
1860.21	-0.0180631	-0.195976	0
1860.21	-0.0212321	-0.195982	0
1860.21	-0.0242865	-0.195982	0
1860.21	-0.0269209	-0.19598	0
1860.21	-0.0300326	-0.195982	0
1860.21	-0.0325716	-0.195982	0
1860.21	-0.0352633	-0.195981	0
1860.21	-0.0378214	-0.195982	0
1860.21	-0.0402077	-0.19598	0
1860.22	-0.042613	-0.195977	0
1860.22	-0.0449802	-0.195977	0
1860.22	-0.0474046	-0.195979	0
1860.22	-0.0495809	-0.195976	0
1860.22	-0.0523872	-0.195978	0
1860.22	-0.055098	-0.195986	0
1860.22	-0.0577324	-0.195986	0
1860.22	-0.060405	-0.195979	0
1860.22	-0.0632685	-0.195982	0
1860.22	-0.0653112	-0.195981	0
1860.22	-0.0677547	-0.195982	0
1860.23	-0.0705037	-0.195977	0
1860.23	-0.0734436	-0.195979	0
1860.23	-0.0756389	-0.195979	0
1860.23	-0.0781397	-0.195976	0
1860.23	-0.0804687	-0.195984	0
1860.23	-0.0827786	-0.195979	0
1860.23	-0.0853749	-0.195982	0
1860.23	-0.0877039	-0.195979	0
1860.24	-0.0899947	-0.195977	0
1860.24	-0.0927437	-0.195982	0
1860.24	-0.0948627	-0.195984	0
1860.24	-0.0971535	-0.195983	0
1860.24	-0.0994825	-0.195979	0
1860.24	-0.101678	-0.195985	0
1860.24	-0.104255	-0.195979	0
1860.24	-0.106527	-0.195977	0
1860.25	-0.108798	-0.195979	0
1860.25	-0.111127	-0.195987	0
1860.25	-0.113552	-0.195978	0
1860.25	-0.115785	-0.195981	0
1860.25	-0.118038	-0.195977	0
1860.25	-0.120214	-0.195974	0
1860.26	-0.122524	-0.195979	0
1860.26	-0.125006	-0.195977	0
1860.26	-0.127316	-0.195985	0
1860.26	-0.129549	-0.195983	0
1860.26	-0.131783	-0.195987	0
1860.27	-0.133959	-0.195979	0
1860.27	-0.136002	-0.195979	0
1860.27	-0.138235	-0.195976	0
1860.27	-0.14066	-0.195984	0
1860.27	-0.142932	-0.195982	0
1860.28	-0.145222	-0.195987	0
1860.28	-0.147475	-0.195979	0
1860.28	-0.149632	-0.195976	0
1860.29	-0.151866	-0.195984	0
1860.29	-0.15408	-0.195975	0
1860.29	-0.156276	-0.195981	0
1860.3	-0.158356	-0.195984	0
1860.3	-0.160437	-0.195975	0
1860.3	-0.16248	-0.195978	0
1860.31	-0.16458	-0.195981	0
1860.32	-0.166699	-0.195986	0
1860.32	-0.168722	-0.195981	0
1860.33	-0.170765	-0.195986	0
1860.36	-0.170708	-0.195977	0
1860.37	-0.168627	-0.195986	0
1860.38	-0.166393	-0.195979	0
1860.39	-0.164198	-0.195985	0
1860.39	-0.162117	-0.195984	0
1860.4	-0.160094	-0.195981	0
1860.4	-0.157803	-0.195982	0
1860.41	-0.155741	-0.195979	0
1860.41	-0.153469	-0.195984	0
1860.42	-0.151331	-0.195984	0
1860.42	-0.149117	-0.195988	0
1860.43	-0.146711	-0.195979	0
1860.43	-0.14465	-0.195988	0
1860.43	-0.142493	-0.195977	0
1860.44	-0.14045	-0.195982	0
1860.44	-0.138216	-0.195985	0
1860.45	-0.136116	-0.195988	0
1860.45	-0.133959	-0.195984	0
1860.46	-0.131936	-0.195979	0
1860.46	-0.129893	-0.195981	0
1860.47	-0.127736	-0.195984	0
1860.47	-0.125521	-0.195979	0
1860.48	-0.12346	-0.195982	0
1860.49	-0.121398	-0.195984	0
1860.49	-0.119336	-0.195985	0
1860.5	-0.117313	-0.195981	0
1860.51	-0.115232	-0.195981	0
1860.52	-0.113132	-0.195986	0
1860.53	-0.111051	-0.195981	0
1860.54	-0.109008	-0.195983	0
1860.55	-0.106947	-0.195976	0
1860.56	-0.104809	-0.195978	0
1860.58	-0.102747	-0.195984	0
1860.6	-0.100723	-0.195982	0
1860.62	-0.0985662	-0.195978	0
1860.65	-0.0964854	-0.195983	0
1860.68	-0.0944427	-0.195984	0
1860.72	-0.0924001	-0.195983	0
1860.78	-0.0903002	-0.195976	0
1860.87	-0.0882575	-0.195976	0
1861.01	-0.086234	-0.195982	0
1861.32	-0.0841341	-0.195981	0
1863.58	-0.0841341	-0.195985	0
1866.07	-0.0861576	-0.195985	0
1868.89	-0.0881812	-0.195988	0
1872.12	-0.0902429	-0.19598	0
1876.27	-0.0922664	-0.195983	0
1881.87	-0.0943091	-0.195984	0
1890.02	-0.0963326	-0.195981	0
1906	-0.0983944	-0.195979	0
1926	-0.0993107	-0.195984	0
1946	-0.0997307	-0.195982	0
1966	-0.0998643	-0.195984	0
1986	-0.0996925	-0.19599	0
2006	-0.0992343	-0.195987	0
2026	-0.0987571	-0.195984	0
2046	-0.098318	-0.195986	0
2066	-0.0979744	-0.195985	0
2086	-0.097478	-0.195982	0
2106	-0.0969435	-0.195986	0
2126	-0.0965235	-0.195986	0
2146	-0.0963899	-0.195988	0
2166	-0.0965426	-0.195987	0
2186	-0.0965617	-0.195982	0
2206	-0.0959317	-0.19599	0
2226	-0.0958745	-0.19599	0
2246	-0.0956836	-0.195986	0
2266	-0.0955118	-0.195985	0
2286	-0.0952063	-0.19599	0
2306	-0.0951681	-0.195989	0
2326	-0.0949391	-0.195984	0
2346	-0.0948436	-0.195985	0
2366	-0.0948627	-0.195987	0
2386	-0.09492	-0.195987	0
2406	-0.0953209	-0.195986	0
2426	-0.0946336	-0.195986	0
2446	-0.0940227	-0.195977	0
2466	-0.0937555	-0.195988	0
2486	-0.0941182	-0.195982	0
2506	-0.0948436	-0.195988	0
2526	-0.0956836	-0.19599	0
2546	-0.0954163	-0.195989	0
2566	-0.0957408	-0.195986	0
2586	-0.0959127	-0.195986	0
2606	-0.0965617	-0.195991	0
2626	-0.0969626	-0.195984	0
2646	-0.0971344	-0.195979	0
2666	-0.0974017	-0.195989	0
2686	-0.0973444	-0.195989	0
2706	-0.0962372	-0.195984	0
2726	-0.096409	-0.195988	0
2746	-0.0971917	-0.195988	0
2764.92	-0.0992343	-0.195988	0
2784.5	-0.100723	-0.195987	0
2804.45	-0.101754	-0.195984	0
2824.45	-0.101563	-0.195986	0
2844.45	-0.101563	-0.195988	0
2864.45	-0.101697	-0.195986	0
2867.61	-0.0996543	-0.195981	0
2871.84	-0.0976308	-0.195983	0
2882.11	-0.095569	-0.195979	0
2902.11	-0.0959127	-0.195989	0
2920.19	-0.0944427	-0.195979	0
2940.19	-0.0929919	-0.195985	0
2960.19	-0.0923428	-0.195982	0
2980.19	-0.0922855	-0.195986	0
3000.19	-0.0917892	-0.195984	0
3018.85	-0.0903574	-0.195986	0
3038.85	-0.0894602	-0.195988	0
3058.85	-0.0889257	-0.195986	0
3078.85	-0.0883911	-0.195984	0
3098.85	-0.087933	-0.195981	0
3118.85	-0.0878566	-0.195979	0
3138.85	-0.0876084	-0.19598	0
3158.85	-0.0871885	-0.195984	0
3178.85	-0.0866158	-0.195977	0
3198.85	-0.0866921	-0.195987	0
3218.85	-0.0864249	-0.195985	0
3238.85	-0.0862149	-0.195986	0
3258.85	-0.0860049	-0.195986	0
3278.85	-0.0859667	-0.195991	0
3298.85	-0.0859094	-0.195983	0
3318.85	-0.0857185	-0.195984	0
3338.85	-0.085394	-0.195985	0
3358.85	-0.0852031	-0.195986	0
3378.85	-0.0847068	-0.195988	0
3398.85	-0.0845922	-0.195984	0
3418.85	-0.0846304	-0.195987	0
3438.85	-0.0845158	-0.195984	0
3458.85	-0.0846686	-0.19598	0
3478.85	-0.0845922	-0.195982	0
3498.85	-0.0844777	-0.19599	0
3518.85	-0.0842104	-0.195984	0
3538.85	-0.0842104	-0.195982	0
3558.85	-0.0840959	-0.195989	0
3578.85	-0.0840577	-0.195986	0
3598.85	-0.084115	-0.195985	0
3618.85	-0.0840768	-0.195984	0
3638.85	-0.0837904	-0.195989	0
3658.85	-0.0834277	-0.195984	0
3660.21	-0.0833323	-0.195983	0