Folder: SUMMER-JOB-2024-MATERIALS-PHYSICS/EXPERIMENTAL/DATA/Electrochemical-cycling/S-series (part 10)

File: 2024-07-04_S27_Icell_t1800_C0010_J01_deltaX-109,6mm_12mmLi_04_CP_C03.txt
time/s	Ewe/V	I/mA	error	Ece/V
1860.21	-0.0201893	-1.12413	0	-0.000486187
1860.21	-0.033579	-1.13098	0	-0.000245673
1860.21	-0.0379702	-1.13101	0	-1.06828e-05
1860.21	-0.0399553	-1.13097	0	4.65743e-05
1860.21	-0.0415968	-1.13102	0	0.000122917
1860.21	-0.0429901	-1.13102	0	4.65743e-05
1860.21	-0.0442308	-1.131	0	0.00019926
1860.21	-0.0452615	-1.13102	0	0.000180174
1860.21	-0.0472084	-1.13097	0	8.4029e-06
1860.21	-0.04822	-1.13095	0	4.65743e-05
1860.21	-0.0498424	-1.13099	0	-1.06828e-05
1860.21	-0.051503	-1.13105	0	2.74886e-05
1860.21	-0.0529346	-1.13098	0	-2.97685e-05
1860.21	-0.0545952	-1.13104	0	4.65743e-05
1860.21	-0.0559504	-1.131	0	-0.000106111
1860.21	-0.0572483	-1.13097	0	4.65743e-05
1860.21	-0.058718	-1.13099	0	8.4029e-06
1860.21	-0.0600159	-1.13102	0	-8.70256e-05
1860.21	-0.0613902	-1.13104	0	0.000103831
1860.21	-0.0625927	-1.13102	0	6.566e-05
1860.21	-0.0638143	-1.13094	0	6.566e-05
1860.21	-0.0650931	-1.13098	0	0.000103831
1860.21	-0.0661239	-1.131	0	6.566e-05
1860.21	-0.0673645	-1.13102	0	2.74886e-05
1860.21	-0.0684907	-1.13104	0	6.566e-05
1860.21	-0.0697313	-1.13104	0	0.000180174
1860.21	-0.0708575	-1.13105	0	8.47457e-05
1860.21	-0.0719073	-1.13101	0	-2.97685e-05
1860.22	-0.0729762	-1.13107	0	6.566e-05
1860.22	-0.074026	-1.13103	0	-6.79399e-05
1860.22	-0.0751903	-1.131	0	8.47457e-05
1860.22	-0.0762973	-1.13106	0	0.000122917
1860.22	-0.077977	-1.131	0	-1.06828e-05
1860.22	-0.0793704	-1.131	0	-2.97685e-05
1860.22	-0.080821	-1.13101	0	2.74886e-05
1860.22	-0.0818326	-1.13109	0	8.47457e-05
1860.22	-0.0833787	-1.13097	0	0.000103831
1860.22	-0.0848675	-1.13098	0	0.000142003
1860.22	-0.0862609	-1.13105	0	-4.88542e-05
1860.22	-0.0876733	-1.131	0	0.000103831
1860.22	-0.0891049	-1.13097	0	2.74886e-05
1860.22	-0.0904982	-1.13105	0	4.65743e-05
1860.22	-0.0918534	-1.13104	0	8.4029e-06
1860.22	-0.0931132	-1.13104	0	0.000122917
1860.22	-0.0944875	-1.13107	0	0.000103831
1860.22	-0.0955373	-1.13097	0	0.000103831
1860.23	-0.0966443	-1.13102	0	-4.88542e-05
1860.23	-0.0980377	-1.13098	0	2.74886e-05
1860.23	-0.0992975	-1.13105	0	8.4029e-06
1860.23	-0.100653	-1.13102	0	0.00019926
1860.23	-0.101779	-1.13095	0	8.4029e-06
1860.23	-0.102981	-1.13102	0	0.000142003
1860.23	-0.10426	-1.13095	0	8.4029e-06
1860.23	-0.105539	-1.13102	0	8.4029e-06
1860.23	-0.106684	-1.13096	0	0.000142003
1860.23	-0.107887	-1.13103	0	2.74886e-05
1860.23	-0.109051	-1.13097	0	0.000161088
1860.23	-0.110158	-1.13104	0	-1.06828e-05
1860.23	-0.111322	-1.13101	0	2.74886e-05
1860.23	-0.112449	-1.13099	0	8.47457e-05
1860.23	-0.113575	-1.13104	0	8.47457e-05
1860.23	-0.114605	-1.13102	0	8.47457e-05
1860.23	-0.115884	-1.13098	0	0.000142003
1860.24	-0.11722	-1.13104	0	4.65743e-05
1860.24	-0.118308	-1.13098	0	-1.06828e-05
1860.24	-0.119473	-1.13102	0	8.47457e-05
1860.24	-0.120713	-1.13104	0	-6.79399e-05
1860.24	-0.121801	-1.13099	0	-2.97685e-05
1860.24	-0.122813	-1.13107	0	6.566e-05
1860.24	-0.123958	-1.13102	0	8.4029e-06
1860.24	-0.12518	-1.131	0	2.74886e-05
1860.24	-0.126516	-1.13105	0	6.566e-05
1860.24	-0.127871	-1.13102	0	-1.06828e-05
1860.24	-0.128921	-1.131	0	4.65743e-05
1860.24	-0.130009	-1.131	0	-1.06828e-05
1860.24	-0.131059	-1.13102	0	4.65743e-05
1860.24	-0.132223	-1.13097	0	6.566e-05
1860.25	-0.133521	-1.13104	0	6.566e-05
1860.25	-0.134762	-1.13097	0	8.4029e-06
1860.25	-0.135907	-1.13101	0	0.000122917
1860.25	-0.137071	-1.131	0	-2.97685e-05
1860.25	-0.138254	-1.13102	0	8.4029e-06
1860.25	-0.1394	-1.13098	0	-1.06828e-05
1860.25	-0.140526	-1.13098	0	2.74886e-05
1860.25	-0.141652	-1.13103	0	8.47457e-05
1860.25	-0.142816	-1.13102	0	0.000180174
1860.25	-0.144191	-1.13103	0	0.000103831
1860.25	-0.145298	-1.13107	0	2.74886e-05
1860.25	-0.146328	-1.13102	0	0.000103831
1860.26	-0.147359	-1.13101	0	6.566e-05
1860.26	-0.148638	-1.13102	0	-1.06828e-05
1860.26	-0.149764	-1.13102	0	0.000103831
1860.26	-0.150776	-1.13103	0	2.74886e-05
1860.26	-0.151864	-1.13095	0	-0.000125197
1860.26	-0.152894	-1.13104	0	2.74886e-05
1860.26	-0.154173	-1.13098	0	8.4029e-06
1860.26	-0.155414	-1.13103	0	4.65743e-05
1860.26	-0.156464	-1.131	0	-1.06828e-05
1860.26	-0.157609	-1.13104	0	8.47457e-05
1860.26	-0.158697	-1.13105	0	8.47457e-05
1860.27	-0.159861	-1.13101	0	4.65743e-05
1860.27	-0.161006	-1.13101	0	-1.06828e-05
1860.27	-0.162285	-1.13102	0	0.000103831
1860.27	-0.163335	-1.13104	0	-2.97685e-05
1860.27	-0.164614	-1.13102	0	8.47457e-05
1860.27	-0.165874	-1.131	0	0.000122917
1860.27	-0.166962	-1.13108	0	0.000161088
1860.27	-0.168126	-1.13101	0	6.566e-05
1860.27	-0.169348	-1.13102	0	0.000122917
1860.28	-0.170588	-1.13104	0	-8.70256e-05
1860.28	-0.171657	-1.13106	0	4.65743e-05
1860.28	-0.172879	-1.13099	0	0.000103831
1860.28	-0.173909	-1.13101	0	4.65743e-05
1860.28	-0.17494	-1.131	0	8.4029e-06
1860.28	-0.176028	-1.13105	0	0.000256517
1860.28	-0.177154	-1.131	0	2.74886e-05
1860.29	-0.178185	-1.13103	0	0.000103831
1860.29	-0.179387	-1.13104	0	0.000122917
1860.29	-0.180571	-1.13098	0	4.65743e-05
1860.29	-0.181773	-1.13097	0	6.566e-05
1860.29	-0.1829	-1.13104	0	6.566e-05
1860.29	-0.184045	-1.13101	0	8.4029e-06
1860.3	-0.185228	-1.13096	0	0.000122917
1860.3	-0.18624	-1.13104	0	0.000122917
1860.3	-0.187404	-1.131	0	0.000142003
1860.3	-0.18853	-1.13104	0	-1.06828e-05
1860.3	-0.189542	-1.13106	0	8.47457e-05
1860.31	-0.190668	-1.13092	0	-4.88542e-05
1860.31	-0.19168	-1.13102	0	0.000161088
1860.31	-0.192749	-1.13107	0	4.65743e-05
1860.32	-0.193798	-1.13104	0	8.47457e-05
1860.33	-0.19481	-1.13107	0	-0.000125197
1860.35	-0.193703	-1.131	0	0.000103831
1860.36	-0.192672	-1.131	0	0.000122917
1860.36	-0.191622	-1.13097	0	-6.79399e-05
1860.37	-0.190515	-1.13095	0	0.000256517
1860.37	-0.189351	-1.13099	0	4.65743e-05
1860.37	-0.188206	-1.13101	0	-2.97685e-05
1860.38	-0.187099	-1.13095	0	-4.88542e-05
1860.38	-0.185915	-1.13097	0	-1.06828e-05
1860.38	-0.184885	-1.131	0	0.000103831
1860.39	-0.183873	-1.13109	0	2.74886e-05
1860.39	-0.182785	-1.13102	0	0.000103831
1860.39	-0.181773	-1.13097	0	-8.70256e-05
1860.4	-0.180743	-1.13095	0	0.000103831
1860.4	-0.179712	-1.13098	0	0.000103831
1860.4	-0.178605	-1.13105	0	6.566e-05
1860.41	-0.177574	-1.13102	0	-2.97685e-05
1860.41	-0.176429	-1.131	0	-2.97685e-05
1860.41	-0.175417	-1.13099	0	-1.06828e-05
1860.42	-0.17431	-1.13103	0	0.000122917
1860.42	-0.17326	-1.13095	0	2.74886e-05
1860.43	-0.172249	-1.13102	0	2.74886e-05
1860.43	-0.171161	-1.13095	0	8.47457e-05
1860.43	-0.170149	-1.13105	0	0.000122917
1860.44	-0.169099	-1.13098	0	2.74886e-05
1860.44	-0.16805	-1.13108	0	6.566e-05
1860.45	-0.166962	-1.131	0	0.000122917
1860.46	-0.165912	-1.131	0	4.65743e-05
1860.46	-0.164881	-1.13097	0	8.4029e-06
1860.47	-0.163774	-1.13102	0	0.000122917
1860.48	-0.162667	-1.13099	0	0.000180174
1860.48	-0.161655	-1.13095	0	6.566e-05
1860.49	-0.160625	-1.13097	0	4.65743e-05
1860.5	-0.159594	-1.13105	0	0.000103831
1860.51	-0.158563	-1.13102	0	0.000103831
1860.52	-0.157552	-1.13099	0	-2.97685e-05
1860.53	-0.156521	-1.13108	0	0.000103831
1860.54	-0.155471	-1.131	0	-1.06828e-05
1860.56	-0.15444	-1.131	0	0.000237431
1860.57	-0.153391	-1.13107	0	4.65743e-05
1860.59	-0.15236	-1.131	0	8.47457e-05
1860.61	-0.151272	-1.13095	0	2.74886e-05
1860.63	-0.150241	-1.13102	0	6.566e-05
1860.66	-0.149191	-1.13102	0	0.000256517
1860.69	-0.14818	-1.13107	0	-0.000106111
1860.72	-0.147149	-1.131	0	-2.97685e-05
1860.77	-0.146138	-1.13099	0	0.000103831
1860.81	-0.145126	-1.13095	0	4.65743e-05
1860.87	-0.144114	-1.13098	0	8.47457e-05
1860.94	-0.143103	-1.13102	0	0.000122917
1861.02	-0.142091	-1.13105	0	6.566e-05
1861.12	-0.14106	-1.13103	0	4.65743e-05
1861.24	-0.140049	-1.13105	0	4.65743e-05
1861.39	-0.139037	-1.13111	0	6.566e-05
1861.56	-0.138025	-1.13101	0	6.566e-05
1861.75	-0.136995	-1.13099	0	0.000142003
1862.01	-0.135945	-1.13097	0	-2.97685e-05
1862.3	-0.134895	-1.13101	0	8.4029e-06
1862.64	-0.133864	-1.13105	0	2.74886e-05
1863.01	-0.132815	-1.13103	0	8.47457e-05
1863.5	-0.131765	-1.13102	0	0.000103831
1864.02	-0.130715	-1.13098	0	-6.79399e-05
1864.66	-0.129703	-1.13109	0	6.566e-05
1865.32	-0.128692	-1.131	0	0.000161088
1866.14	-0.127661	-1.13104	0	2.74886e-05
1867.11	-0.126649	-1.131	0	4.65743e-05
1868.17	-0.125638	-1.131	0	8.47457e-05
1869.29	-0.124626	-1.13101	0	0.000122917
1870.8	-0.123615	-1.13098	0	8.47457e-05
1872.49	-0.122603	-1.1311	0	8.4029e-06
1874.58	-0.121572	-1.13101	0	6.566e-05
1877.28	-0.120561	-1.13105	0	0.000161088
1880.93	-0.119549	-1.13102	0	-2.97685e-05
1886.3	-0.118518	-1.1311	0	6.566e-05
1896.21	-0.117774	-1.131	0	6.566e-05

File: 2024-07-04_S29_Icell_t1800_C0010_J01_deltaX-109,9mm_12mmLi-polished_04_CP_C06.txt
time/s	Ewe/V	I/mA	error	Ece/V
1860.21	-0.0169874	-1.12402	0	-0.000637735
1860.21	-0.028214	-1.13091	0	-0.000717916
1860.21	-0.0321741	-1.13106	0	8.1944e-05
1860.21	-0.0336442	-1.13098	0	-5.16839e-05
1860.21	-0.0347706	-1.13086	0	-3.25942e-05
1860.21	-0.0363934	-1.13097	0	4.37646e-05
1860.21	-0.0379208	-1.13099	0	-3.25942e-05
1860.21	-0.0392381	-1.13099	0	-7.07736e-05
1860.21	-0.0404218	-1.13087	0	8.1944e-05
1860.21	-0.04151	-1.13088	0	-1.35045e-05
1860.21	-0.0426365	-1.131	0	5.58521e-06
1860.21	-0.0439729	-1.1309	0	4.37646e-05
1860.21	-0.0451184	-1.13101	0	0.000101034
1860.21	-0.0463976	-1.13098	0	-1.35045e-05
1860.21	-0.0474094	-1.13084	0	0.000101034
1860.21	-0.0486695	-1.13094	0	5.58521e-06
1860.21	-0.0500059	-1.131	0	0.000101034
1860.21	-0.0510178	-1.131	0	5.58521e-06
1860.21	-0.0522206	-1.13097	0	8.1944e-05
1860.21	-0.0533661	-1.13092	0	5.58521e-06
1860.21	-0.0544352	-1.13093	0	2.46749e-05
1860.22	-0.0555235	-1.13095	0	2.46749e-05
1860.22	-0.0567263	-1.13099	0	2.46749e-05
1860.22	-0.0577763	-1.13096	0	-5.16839e-05
1860.22	-0.0587882	-1.13094	0	-1.35045e-05
1860.22	-0.0598955	-1.13094	0	2.46749e-05
1860.22	-0.0611556	-1.13088	0	2.46749e-05
1860.22	-0.0623393	-1.13096	0	0.000101034
1860.22	-0.0634084	-1.13095	0	0.000120123
1860.22	-0.0647067	-1.13093	0	-7.07736e-05
1860.22	-0.065814	-1.13086	0	-1.35045e-05
1860.22	-0.0669977	-1.13095	0	5.58521e-06
1860.22	-0.0681241	-1.13095	0	-1.35045e-05
1860.22	-0.0693269	-1.13097	0	4.37646e-05
1860.23	-0.0705106	-1.13096	0	4.37646e-05
1860.23	-0.0716943	-1.13102	0	-3.25942e-05
1860.23	-0.0728207	-1.13094	0	2.46749e-05
1860.23	-0.0739853	-1.13097	0	0.000177393
1860.23	-0.075169	-1.13098	0	2.46749e-05
1860.23	-0.0763336	-1.13095	0	6.28543e-05
1860.23	-0.0775173	-1.13092	0	-0.000128043
1860.23	-0.0786629	-1.13096	0	6.28543e-05
1860.23	-0.0796938	-1.13097	0	2.46749e-05
1860.24	-0.0808775	-1.13093	0	4.37646e-05
1860.24	-0.0818894	-1.13096	0	0.000120123
1860.24	-0.0829204	-1.13099	0	5.58521e-06
1860.24	-0.0839704	-1.13094	0	-5.16839e-05
1860.24	-0.0850777	-1.1309	0	8.1944e-05
1860.24	-0.0863187	-1.13097	0	-0.000128043
1860.24	-0.0874642	-1.13096	0	-1.35045e-05
1860.24	-0.0885143	-1.13095	0	2.46749e-05
1860.25	-0.0896216	-1.1309	0	0.000101034
1860.25	-0.0907289	-1.131	0	4.37646e-05
1860.25	-0.0917981	-1.13091	0	8.1944e-05
1860.25	-0.09281	-1.13102	0	0.000139213
1860.25	-0.0940891	-1.13088	0	4.37646e-05
1860.25	-0.095101	-1.13093	0	5.58521e-06
1860.25	-0.0962656	-1.131	0	-1.35045e-05
1860.26	-0.0974111	-1.13092	0	-3.25942e-05
1860.26	-0.0986139	-1.13092	0	2.46749e-05
1860.26	-0.0997785	-1.13099	0	0.000158303
1860.26	-0.100886	-1.13092	0	0.000120123
1860.26	-0.101917	-1.13094	0	4.37646e-05
1860.26	-0.102948	-1.13097	0	8.1944e-05
1860.26	-0.103998	-1.13098	0	2.46749e-05
1860.27	-0.105048	-1.13098	0	5.58521e-06
1860.27	-0.106098	-1.13095	0	2.46749e-05
1860.27	-0.107282	-1.13098	0	-7.07736e-05
1860.27	-0.10837	-1.13097	0	0.000101034
1860.27	-0.109496	-1.13099	0	6.28543e-05
1860.27	-0.110527	-1.13098	0	5.58521e-06
1860.28	-0.111539	-1.13097	0	-3.25942e-05
1860.28	-0.112608	-1.13099	0	0.000101034
1860.28	-0.113716	-1.13102	0	6.28543e-05
1860.28	-0.114823	-1.131	0	6.28543e-05
1860.28	-0.116045	-1.13092	0	4.37646e-05
1860.29	-0.11719	-1.13096	0	0.000120123
1860.29	-0.118259	-1.13094	0	8.1944e-05
1860.29	-0.119424	-1.13094	0	2.46749e-05
1860.29	-0.120493	-1.13088	0	8.1944e-05
1860.29	-0.121562	-1.13098	0	2.46749e-05
1860.29	-0.12267	-1.13097	0	-3.25942e-05
1860.3	-0.123739	-1.13102	0	4.37646e-05
1860.3	-0.124827	-1.13098	0	0.000120123
1860.3	-0.125953	-1.13098	0	-3.25942e-05
1860.3	-0.127061	-1.13098	0	0.000158303
1860.31	-0.128206	-1.13094	0	2.46749e-05
1860.31	-0.12939	-1.13102	0	5.58521e-06
1860.31	-0.130402	-1.13094	0	0.000101034
1860.31	-0.1317	-1.13092	0	8.1944e-05
1860.32	-0.13275	-1.13096	0	0.000101034
1860.32	-0.133762	-1.1309	0	-3.25942e-05
1860.32	-0.13485	-1.13095	0	8.1944e-05
1860.32	-0.1359	-1.13094	0	8.1944e-05
1860.33	-0.136931	-1.13096	0	0.000139213
1860.33	-0.138115	-1.13098	0	4.37646e-05
1860.33	-0.139146	-1.13094	0	-3.25942e-05
1860.33	-0.140196	-1.13098	0	-1.35045e-05
1860.34	-0.141418	-1.13099	0	4.37646e-05
1860.34	-0.142563	-1.13097	0	2.46749e-05
1860.34	-0.143613	-1.13097	0	-8.98633e-05
1860.35	-0.144702	-1.13095	0	5.58521e-06
1860.35	-0.145733	-1.13092	0	-1.35045e-05
1860.36	-0.146802	-1.131	0	5.58521e-06
1860.36	-0.147814	-1.13093	0	6.28543e-05
1860.37	-0.148902	-1.13092	0	2.46749e-05
1860.37	-0.149914	-1.13097	0	2.46749e-05
1860.39	-0.151021	-1.13098	0	4.37646e-05
1860.41	-0.149914	-1.13088	0	6.28543e-05
1860.42	-0.148902	-1.13096	0	-0.000108953
1860.43	-0.147833	-1.131	0	0.000177393
1860.44	-0.146764	-1.13097	0	-5.16839e-05
1860.45	-0.145733	-1.13091	0	-8.98633e-05
1860.46	-0.144702	-1.13097	0	5.58521e-06
1860.47	-0.143671	-1.13099	0	5.58521e-06
1860.48	-0.14264	-1.13095	0	4.37646e-05
1860.48	-0.141609	-1.1309	0	-0.000108953
1860.49	-0.140597	-1.13095	0	4.37646e-05
1860.5	-0.139547	-1.13095	0	-1.35045e-05
1860.51	-0.138497	-1.13097	0	8.1944e-05
1860.53	-0.13739	-1.13092	0	6.28543e-05
1860.54	-0.136339	-1.13093	0	4.37646e-05
1860.55	-0.135289	-1.13097	0	6.28543e-05
1860.56	-0.134163	-1.1309	0	-7.07736e-05
1860.58	-0.133151	-1.13095	0	5.58521e-06
1860.59	-0.132044	-1.13093	0	-5.16839e-05
1860.61	-0.131013	-1.13093	0	-1.35045e-05
1860.62	-0.129963	-1.13092	0	0.000120123
1860.64	-0.128951	-1.13098	0	-7.07736e-05
1860.66	-0.127939	-1.13093	0	6.28543e-05
1860.67	-0.126813	-1.13103	0	2.46749e-05
1860.7	-0.125782	-1.13094	0	5.58521e-06
1860.72	-0.124732	-1.13092	0	2.46749e-05
1860.74	-0.12372	-1.13099	0	-0.000185312
1860.76	-0.122651	-1.13097	0	-5.16839e-05
1860.78	-0.121639	-1.13104	0	0.000158303
1860.81	-0.120608	-1.13099	0	8.1944e-05
1860.84	-0.119577	-1.13099	0	-0.000204402
1860.87	-0.118565	-1.13097	0	0.000101034
1860.9	-0.117553	-1.13094	0	6.28543e-05
1860.93	-0.116541	-1.13088	0	8.1944e-05
1860.97	-0.115491	-1.131	0	0.000120123
1861.01	-0.114479	-1.13103	0	-3.25942e-05
1861.06	-0.113467	-1.13095	0	-5.16839e-05
1861.11	-0.112456	-1.13099	0	0.000139213
1861.16	-0.111405	-1.13105	0	-5.16839e-05
1861.24	-0.110336	-1.13092	0	-5.16839e-05
1861.32	-0.109324	-1.13102	0	0.000101034
1861.41	-0.108313	-1.13095	0	-7.07736e-05
1861.53	-0.107301	-1.13098	0	2.46749e-05
1861.67	-0.106289	-1.131	0	0.000101034
1861.9	-0.105277	-1.13095	0	-8.98633e-05
1862.2	-0.104265	-1.13093	0	-0.000204402
1862.78	-0.103234	-1.13094	0	-8.98633e-05
1868.75	-0.104246	-1.13094	0	-1.35045e-05
1872.26	-0.105258	-1.13098	0	8.1944e-05
1878.74	-0.106308	-1.13096	0	2.46749e-05
1888.74	-0.106251	-1.13098	0	-1.35045e-05
1896.21	-0.10585	-1.131	0	2.46749e-05