Folder: SUMMER-JOB-2024-MATERIALS-PHYSICS/EXPERIMENTAL/DATA/Electrochemical-cycling/S-series (part 5)

File: 2024-06-27_S19_Icell_t1800_C0010_J01_deltaX-109,9mm_02_MB_C06.txt
time/s	Ewe/V	I/mA	error	Ece/V
60.053	2.90223	-0.0250234	0	-0.000717916
60.1736	0.00929399	-13.0519	0	-1.35045e-05
60.1744	0.00935127	-12.9074	0	-1.35045e-05
60.1752	0.00938945	-12.7623	0	-7.07736e-05
60.176	0.00921763	-12.6286	0	-3.25942e-05
60.1768	0.00937036	-12.4815	0	5.58521e-06
60.1776	0.00935127	-12.3453	0	-5.16839e-05
60.1784	0.00931308	-12.2135	0	-0.000128043
60.1792	0.00938945	-12.0805	0	4.37646e-05
60.18	0.00938945	-11.9538	0	-0.000128043
60.1808	0.00931308	-11.8405	0	2.46749e-05
60.1816	0.00929399	-11.7074	0	4.37646e-05
60.1824	0.00940854	-11.6005	0	2.46749e-05
60.1834	0.00929399	-11.4426	0	-7.07736e-05
60.1842	0.00933218	-11.3287	0	0.000101034
60.185	0.00940854	-11.2173	0	-0.000185312
60.1858	0.00935127	-11.1065	0	-5.16839e-05
60.1868	0.00935127	-10.9734	0	-0.000108953
60.1876	0.00944673	-10.8601	0	-1.35045e-05
60.1886	0.00944673	-10.7373	0	-0.000108953
60.1898	0.00942764	-10.5883	0	5.58521e-06
60.191	0.00929399	-10.4457	0	-1.35045e-05
60.192	0.00933218	-10.3228	0	-0.000108953
60.1932	0.00931308	-10.1821	0	-8.98633e-05
60.1942	0.00929399	-10.0688	0	-0.000108953
60.1954	0.00935127	-9.93259	0	-0.000108953
60.1966	0.00937036	-9.804	0	-1.35045e-05
60.1978	0.00925581	-9.67731	0	-7.07736e-05
60.1988	0.00933218	-9.56527	0	-0.000128043
60.2	0.00940854	-9.44878	0	4.37646e-05
60.2012	0.00942764	-9.33291	0	-5.16839e-05
60.2024	0.00938945	-9.21578	0	-1.35045e-05
60.2038	0.00935127	-9.08273	0	2.46749e-05
60.205	0.00933218	-8.97642	0	-0.000147132
60.2064	0.00933218	-8.85801	0	-7.07736e-05
60.2078	0.00923672	-8.73578	0	-5.16839e-05
60.2094	0.00935127	-8.60146	0	-5.16839e-05
60.2108	0.00923672	-8.49578	0	-5.16839e-05
60.2124	0.00933218	-8.36528	0	2.46749e-05
60.214	0.00938945	-8.24178	0	-0.000128043
60.2156	0.00946582	-8.12656	0	6.28543e-05
60.217	0.00942764	-8.02088	0	-0.000128043
60.219	0.00946582	-7.88401	0	-5.16839e-05
60.2208	0.00929399	-7.77452	0	-7.07736e-05
60.2224	0.00935127	-7.66247	0	5.58521e-06
60.2242	0.00937036	-7.54789	0	2.46749e-05
60.226	0.00944673	-7.43648	0	-3.25942e-05
60.228	0.00935127	-7.32062	0	6.28543e-05
60.23	0.00940854	-7.2124	0	0.000101034
60.232	0.00933218	-7.10163	0	0.000120123
60.234	0.0092749	-6.9915	0	-7.07736e-05
60.2362	0.00935127	-6.88264	0	-3.25942e-05
60.2384	0.00937036	-6.77251	0	5.58521e-06
60.2408	0.00935127	-6.66174	0	-0.000128043
60.2432	0.00937036	-6.55797	0	-1.35045e-05
60.2454	0.00938945	-6.45421	0	5.58521e-06
60.2482	0.00937036	-6.33071	0	-0.000147132
60.2508	0.00940854	-6.22694	0	-0.000204402
60.2534	0.00933218	-6.11872	0	-0.000108953
60.2566	0.00938945	-6.00604	0	-7.07736e-05
60.2594	0.00938945	-5.90164	0	2.46749e-05
60.2626	0.00935127	-5.7896	0	-3.25942e-05
60.2658	0.00937036	-5.68647	0	-8.98633e-05
60.2694	0.00940854	-5.56615	0	-5.16839e-05
60.2732	0.00944673	-5.44965	0	-3.25942e-05
60.2772	0.00929399	-5.33506	0	-3.25942e-05
60.2812	0.00935127	-5.22429	0	-0.000108953
60.285	0.00929399	-5.12244	0	-8.98633e-05
60.289	0.00937036	-5.01613	0	-0.000108953
60.2938	0.00935127	-4.90599	0	-7.07736e-05
60.2986	0.0092749	-4.79777	0	0.000120123
60.3034	0.00935127	-4.6921	0	-0.000128043
60.3082	0.0092749	-4.59088	0	-0.000204402
60.3132	0.00937036	-4.4852	0	-0.000147132
60.319	0.00925581	-4.37952	0	-8.98633e-05
60.325	0.00931308	-4.26812	0	-5.16839e-05
60.3312	0.00937036	-4.16563	0	-7.07736e-05
60.3376	0.0092749	-4.05358	0	-1.35045e-05
60.345	0.00933218	-3.94982	0	0.000101034
60.352	0.00938945	-3.84351	0	2.46749e-05
60.3602	0.00938945	-3.73465	0	-0.000185312
60.3686	0.00942764	-3.62834	0	5.58521e-06
60.3732	0.00933218	-3.63767	0	-0.000108953
60.4086	0.00935127	-3.22921	0	5.58521e-06
60.4198	0.00933218	-3.12699	0	-8.98633e-05
60.4318	0.00931308	-3.02591	0	-8.98633e-05
60.4446	0.00929399	-2.92305	0	-0.000128043
60.4584	0.00931308	-2.82133	0	-7.07736e-05
60.4734	0.00925581	-2.72045	0	-7.07736e-05
60.4894	0.0092749	-2.6186	0	-3.25942e-05
60.507	0.00935127	-2.51733	0	-0.000108953
60.526	0.00938945	-2.41632	0	-1.35045e-05
60.547	0.00929399	-2.31454	0	-7.07736e-05
60.5698	0.0092749	-2.21403	0	-3.25942e-05
60.595	0.00923672	-2.11384	0	4.37646e-05
60.6228	0.00944673	-2.0134	0	4.37646e-05
60.6538	0.00942764	-1.9129	0	2.46749e-05
60.6892	0.00946582	-1.81271	0	6.28543e-05
60.7298	0.00937036	-1.7108	0	8.1944e-05
60.7754	0.00933218	-1.61042	0	-0.000128043
60.8288	0.0092749	-1.50922	0	-3.25942e-05
60.891	0.0092749	-1.40909	0	-5.16839e-05
60.965	0.00933218	-1.30814	0	-0.000128043
61.0546	0.00940854	-1.2077	0	5.58521e-06
61.166	0.00923672	-1.10675	0	-0.000128043
61.3066	0.00942764	-1.00611	0	-8.98633e-05
61.4916	0.00937036	-0.905862	0	6.28543e-05
61.7448	0.00933218	-0.805547	0	-5.16839e-05
62.113	0.00944673	-0.704341	0	4.37646e-05
62.6882	0.00937036	-0.60409	0	-8.98633e-05
63.654	0.00931308	-0.503902	0	-5.16839e-05
65.523	0.00937036	-0.403505	0	-0.000108953
69.3004	0.00944673	-0.303406	0	8.1944e-05
78.7174	0.00933218	-0.203345	0	-7.07736e-05
98.7174	0.00938945	-0.129805	0	-0.000223491
118.717	0.00937036	-0.100262	0	-0.000128043
138.717	0.00929399	-0.0828295	0	-7.07736e-05
158.717	0.00931308	-0.0708645	0	-1.35045e-05
178.717	0.00946582	-0.0623553	0	-3.25942e-05
198.717	0.00933218	-0.0558318	0	-5.16839e-05
218.717	0.00935127	-0.0504348	0	-1.35045e-05
238.717	0.00935127	-0.0459289	0	0.000101034
258.717	0.00942764	-0.0418193	0	-8.98633e-05
278.717	0.00933218	-0.0385743	0	5.58521e-06
298.717	0.00940854	-0.0352065	0	-0.000108953
318.717	0.00937036	-0.0322739	0	2.46749e-05
338.717	0.00933218	-0.0295755	0	-1.35045e-05
358.717	0.00938945	-0.0271284	0	4.37646e-05
378.717	0.00935127	-0.0248506	0	-1.35045e-05
398.717	0.00935127	-0.0229335	0	-5.16839e-05
418.717	0.00931308	-0.0211252	0	-1.35045e-05
438.717	0.00940854	-0.0195981	0	0.000101034
458.717	0.00933218	-0.0181214	0	8.1944e-05
478.717	0.00931308	-0.0167515	0	-3.25942e-05
498.717	0.00929399	-0.015708	0	-3.25942e-05
518.717	0.00931308	-0.0146098	0	-1.35045e-05
538.717	0.00940854	-0.0136318	0	4.37646e-05
558.717	0.00917944	-0.0128511	0	-7.07736e-05
578.717	0.00933218	-0.0119845	0	2.46749e-05
598.717	0.00929399	-0.011284	0	2.46749e-05
618.717	0.00940854	-0.0107336	0	5.58521e-06
638.717	0.00929399	-0.0102049	0	-3.25942e-05
658.717	0.00942764	-0.00963032	0	-1.35045e-05
678.717	0.00929399	-0.0091073	0	-1.35045e-05
698.717	0.00937036	-0.00852384	0	2.46749e-05
718.717	0.00946582	-0.00816498	0	-7.07736e-05
738.717	0.00938945	-0.00782967	0	0.000101034
758.717	0.00933218	-0.00754017	0	-5.16839e-05
778.717	0.00937036	-0.00716349	0	-1.35045e-05
798.717	0.00937036	-0.00685236	0	-3.25942e-05
818.717	0.00944673	-0.00649604	0	0.000101034
838.717	0.00931308	-0.00619509	0	8.1944e-05
858.717	0.00942764	-0.00601948	0	-3.25942e-05
878.717	0.00931308	-0.00576815	0	5.58521e-06
898.717	0.00938945	-0.00544556	0	8.1944e-05
918.717	0.00933218	-0.00535076	0	-5.16839e-05
938.717	0.0092749	-0.00517769	0	5.58521e-06
958.717	0.00933218	-0.00496327	0	-7.07736e-05
978.717	0.00942764	-0.00486655	0	-0.000108953
998.717	0.00933218	-0.0045955	0	-0.000128043
1018.72	0.0092749	-0.00451301	0	-5.16839e-05
1038.72	0.00935127	-0.0043628	0	-7.07736e-05
1058.72	0.00925581	-0.00420979	0	0.000139213
1078.72	0.00937036	-0.00407313	0	-5.16839e-05
1098.72	0.00929399	-0.00393342	0	-7.07736e-05
1118.72	0.00931308	-0.00385163	0	2.46749e-05
1138.72	0.00935127	-0.00374991	0	-3.25942e-05
1158.72	0.0092749	-0.00364101	0	-3.25942e-05
1178.72	0.00931308	-0.00352816	0	-7.07736e-05
1198.72	0.00940854	-0.00344051	0	-8.98633e-05
1218.72	0.00931308	-0.00337622	0	-8.98633e-05
1238.72	0.00935127	-0.00326401	0	-1.35045e-05
1258.72	0.00937036	-0.00318687	0	2.46749e-05
1278.72	0.00938945	-0.00312824	0	-5.16839e-05
1298.72	0.00931308	-0.00302087	0	2.46749e-05
1318.72	0.00933218	-0.00295512	0	-0.000108953
1338.72	0.00940854	-0.00289325	0	2.46749e-05
1358.72	0.00940854	-0.00288542	0	-5.16839e-05
1378.72	0.00931308	-0.0027753	0	2.46749e-05
1398.72	0.00940854	-0.00270841	0	-5.16839e-05
1418.72	0.00933218	-0.00263266	0	-7.07736e-05
1438.72	0.00929399	-0.00258168	0	-0.000128043
1458.72	0.00935127	-0.00254546	0	4.37646e-05
1478.72	0.00933218	-0.00253687	0	4.37646e-05
1498.72	0.00933218	-0.00245317	0	-0.000147132
1518.72	0.00935127	-0.00241435	0	-7.07736e-05
1538.72	0.00931308	-0.00237545	0	-0.000108953
1558.72	0.00933218	-0.00231569	0	5.58521e-06
1578.72	0.00929399	-0.00226916	0	-1.35045e-05
1598.72	0.00938945	-0.00224478	0	-0.000128043
1618.72	0.00935127	-0.00217769	0	-0.000108953
1638.72	0.00931308	-0.00213288	0	-1.35045e-05
1658.72	0.00931308	-0.0021129	0	5.58521e-06
1678.72	0.00929399	-0.00206592	0	-0.000166222
1698.72	0.00929399	-0.00204683	0	-3.25942e-05
1718.72	0.00933218	-0.00200527	0	-7.07736e-05
1738.72	0.00937036	-0.00200183	0	-7.07736e-05
1758.72	0.00929399	-0.00195403	0	-1.35045e-05
1778.72	0.00935127	-0.00195155	0	5.58521e-06
1798.72	0.00931308	-0.0018611	0	2.46749e-05
1818.72	0.00940854	-0.00186772	0	-0.000128043
1838.72	0.00933218	-0.00184729	0	-8.98633e-05
1858.72	0.00937036	-0.00181483	0	0.000101034
1860.05	0.00944673	-0.00180891	0	-3.25942e-05

File: 2024-07-02_S20_Icell_t1800_C0010_J01_deltaX-110,2mm_plating-stripping_02_MB_C02.txt
time/s	Ewe/V	I/mA	error
60.053	2.5706	-0.0250311	0	0
60.1436	0.00919835	-8.53814	0	0
60.1444	0.00916017	-8.35891	0	0
60.1452	0.00923652	-8.18687	0	0
60.146	0.00923652	-8.02138	0	0
60.1468	0.00925561	-7.86175	0	0
60.1476	0.00929379	-7.70676	0	0
60.1484	0.00919835	-7.5587	0	0
60.1492	0.00923652	-7.4144	0	0
60.15	0.0092747	-7.275	0	0
60.1508	0.00925561	-7.14082	0	0
60.1516	0.00929379	-7.01007	0	0
60.1524	0.00923652	-6.88371	0	0
60.1532	0.00921743	-6.76168	0	0
60.154	0.00923652	-6.64245	0	0
60.1548	0.00929379	-6.52761	0	0
60.1556	0.00923652	-6.41582	0	0
60.1564	0.00921743	-6.30683	0	0
60.1572	0.00933196	-6.20134	0	0
60.158	0.00925561	-6.09897	0	0
60.1592	0.00925561	-5.95136	0	0
60.1604	0.00929379	-5.80897	0	0
60.1616	0.00921743	-5.673	0	0
60.1628	0.00923652	-5.54302	0	0
60.164	0.00937014	-5.41691	0	0
60.1652	0.00923652	-5.29622	0	0
60.1664	0.00921743	-5.1794	0	0
60.1676	0.00937014	-5.06831	0	0
60.1688	0.00929379	-4.96123	0	0
60.17	0.00929379	-4.85733	0	0
60.1716	0.00921743	-4.725	0	0
60.1732	0.00919835	-4.59896	0	0
60.1748	0.00921743	-4.47972	0	0
60.1764	0.00937014	-4.36361	0	0
60.178	0.00921743	-4.25405	0	0
60.1796	0.00921743	-4.14938	0	0
60.1814	0.00921743	-4.03613	0	0
60.1834	0.00925561	-3.91709	0	0
60.1854	0.00935105	-3.80441	0	0
60.1874	0.00919835	-3.69822	0	0
60.1894	0.00925561	-3.5961	0	0
60.1918	0.00929379	-3.47986	0	0
60.1942	0.00931287	-3.37005	0	0
60.1966	0.00923652	-3.26678	0	0
60.1994	0.00933196	-3.15321	0	0
60.2022	0.00929379	-3.0469	0	0
60.2052	0.00931287	-2.93893	0	0
60.2084	0.00929379	-2.83191	0	0
60.2116	0.00923652	-2.73068	0	0
60.2152	0.00937014	-2.62539	0	0
60.219	0.00923652	-2.5199	0	0
60.223	0.00919835	-2.41848	0	0
60.2274	0.00923652	-2.31452	0	0
60.2322	0.0092747	-2.21024	0	0
60.2374	0.00931287	-2.10621	0	0
60.2432	0.00925561	-2.00193	0	0
60.2494	0.00925561	-1.89828	0	0
60.2562	0.00933196	-1.79642	0	0
60.2638	0.00931287	-1.69469	0	0
60.2722	0.00933196	-1.59295	0	0
60.2816	0.00929379	-1.49172	0	0
60.2924	0.0092747	-1.38884	0	0
60.3044	0.00917926	-1.288	0	0
60.3184	0.00931287	-1.18588	0	0
60.335	0.00923652	-1.08414	0	0
60.3544	0.00937014	-0.983682	0	0
60.378	0.00925561	-0.882709	0	0
60.4076	0.00935105	-0.781674	0	0
60.4444	0.00925561	-0.681656	0	0
60.493	0.00925561	-0.581511	0	0
60.5614	0.00917926	-0.48003	0	0
60.674	0.00917926	-0.374738	0	0
60.8608	0.00935105	-0.274517	0	0
61.2832	0.00923652	-0.174462	0	0
62.8756	0.00933196	-0.0744064	0	0
78.3542	0.00925561	-0.0111624	0	0
98.3542	0.00925561	-0.00510515	0	0
118.354	0.00935105	-0.00324919	0	0
138.354	0.00937014	-0.00246706	0	0
158.354	0.00931287	-0.00194841	0	0
178.354	0.00923652	-0.0016513	0	0
198.354	0.00931287	-0.00140716	0	0
218.354	0.00935105	-0.00123594	0	0
238.354	0.00925561	-0.00113368	0	0
258.354	0.00923652	-0.00102848	0	0
278.354	0.00925561	-0.00095016	0	0
298.354	0.00925561	-0.000899028	0	0
318.354	0.00917926	-0.000870692	0	0
338.354	0.0092747	-0.000785748	0	0
358.354	0.00929379	-0.000780845	0	0
378.354	0.00933196	-0.000718506	0	0
398.354	0.0092747	-0.000699721	0	0
418.354	0.00917926	-0.000684757	0	0
438.354	0.00929379	-0.000681828	0	0
458.354	0.00921743	-0.000604716	0	0
478.354	0.00925561	-0.000624456	0	0
498.354	0.00923652	-0.000540785	0	0
518.354	0.00917926	-0.000570331	0	0
538.354	0.00916017	-0.00057638	0	0
558.354	0.00921743	-0.000533908	0	0
578.354	0.0092747	-0.000506273	0	0
598.354	0.00933196	-0.000494556	0	0
618.354	0.00925561	-0.000470359	0	0
638.354	0.00919835	-0.000480102	0	0
658.354	0.00917926	-0.000445908	0	0
678.354	0.0092747	-0.000467367	0	0
698.354	0.0092747	-0.000478064	0	0
718.354	0.00925561	-0.000404709	0	0
738.354	0.00921743	-0.000411077	0	0
758.354	0.00923652	-0.000400315	0	0
778.354	0.00925561	-0.000401907	0	0
798.354	0.00917926	-0.000445653	0	0
818.354	0.00929379	-0.000395412	0	0
838.354	0.00933196	-0.000393757	0	0
858.354	0.00925561	-0.000397259	0	0
878.354	0.00923652	-0.000367586	0	0
898.354	0.00925561	-0.000359372	0	0
918.354	0.0092747	-0.000377647	0	0
938.354	0.00937014	-0.000385479	0	0
958.354	0.00925561	-0.000362364	0	0
978.354	0.00917926	-0.000325177	0	0
998.354	0.00916017	-0.000348419	0	0
1018.35	0.00933196	-0.000359754	0	0
1038.35	0.00925561	-0.000369432	0	0
1058.35	0.00935105	-0.000348738	0	0
1078.35	0.00933196	-0.000334665	0	0
1098.35	0.00929379	-0.000349247	0	0
1118.35	0.00923652	-0.000334283	0	0
1138.35	0.00935105	-0.000331227	0	0
1158.35	0.0092747	-0.000338613	0	0
1178.35	0.00914108	-0.000363447	0	0
1198.35	0.0092747	-0.000312442	0	0
1218.35	0.00923652	-0.000333137	0	0
1238.35	0.00921743	-0.000326897	0	0
1258.35	0.00929379	-0.000294485	0	0
1278.35	0.00919835	-0.000269843	0	0
1298.35	0.00917926	-0.000299006	0	0
1318.35	0.00933196	-0.000276529	0	0
1338.35	0.00916017	-0.000305438	0	0
1358.35	0.00931287	-0.000266786	0	0
1378.35	0.00919835	-0.00027933	0	0
1398.35	0.00929379	-0.000250804	0	0
1418.35	0.00917926	-0.0002601	0	0
1438.35	0.00933196	-0.000288882	0	0
1458.35	0.00931287	-0.000245455	0	0
1478.35	0.00929379	-0.000268824	0	0
1498.35	0.00921743	-0.000242653	0	0
1518.35	0.00919835	-0.000285316	0	0
1538.35	0.00925561	-0.000272326	0	0
1558.35	0.00925561	-0.000229408	0	0
1578.35	0.00919835	-0.000282387	0	0
1598.35	0.00923652	-0.000239214	0	0
1618.35	0.00921743	-0.000264749	0	0
1638.35	0.00935105	-0.000251695	0	0
1658.35	0.00931287	-0.000229854	0	0
1678.35	0.00929379	-0.000260419	0	0
1698.35	0.00916017	-0.000244945	0	0
1718.35	0.00921743	-0.000228899	0	0
1738.35	0.00925561	-0.000258063	0	0
1758.35	0.00929379	-0.000241889	0	0
1778.35	0.00925561	-0.000233738	0	0
1798.35	0.00921743	-0.000243099	0	0
1818.35	0.00931287	-0.000233356	0	0
1838.35	0.0092747	-0.000250485	0	0
1858.35	0.00923652	-0.000240997	0	0
1860.05	0.00917926	-0.000229599	0	0

File: 2024-07-02_S20_Icell_t1800_C0010_J01_deltaX-110,2mm_plating-stripping_04_CP_C02.txt
time/s	Ewe/V	I/mA	error
1860.26	-0.000105329	-0.194575	0
1860.27	-0.0510844	-0.19597	0
1860.28	-0.0927733	-0.19597	0
1860.31	-0.130816	-0.195971	0
1860.34	-0.166798	-0.195973	0
1860.41	-0.154467	-0.195964	0
1860.46	-0.119077	-0.195971	0
1863.31	-0.110373	-0.195971	0
1932.96	0.894111	-0.195966	0
1932.98	0.853358	-0.195961	0
1933	0.81499	-0.195969	0
1933.03	0.777768	-0.19597	0
1933.06	0.740565	-0.195964	0
1933.09	0.703935	-0.195961	0
1933.12	0.666865	-0.195966	0
1933.16	0.630426	-0.195971	0
1933.2	0.594826	-0.195971	0
1933.24	0.559551	-0.195969	0
1933.28	0.524123	-0.195973	0
1933.32	0.48879	-0.195965	0
1933.37	0.453229	-0.195966	0
1933.42	0.418125	-0.195969	0
1933.47	0.383194	-0.195975	0
1933.52	0.348109	-0.19597	0
1933.57	0.313617	-0.195968	0
1933.63	0.278399	-0.195964	0
1933.69	0.243696	-0.195971	0
1933.75	0.208746	-0.195967	0
1933.81	0.173967	-0.195968	0
1933.88	0.138921	-0.195966	0
1933.95	0.104581	-0.195971	0
1934.02	0.0697064	-0.195965	0
1934.11	0.0350993	-0.195966	0
1934.19	0.00117937	-0.195968	0
1934.29	-0.0331796	-0.195969	0
1934.41	-0.0673286	-0.195966	0
1934.86	-0.0821411	-0.195968	0
1946.77	-0.0756511	-0.195971	0
1962.37	-0.108559	-0.19597	0
2002.14	0.887736	-0.195964	0
2002.15	0.847536	-0.195969	0
2002.17	0.809512	-0.195966	0
2002.2	0.772366	-0.195963	0
2002.23	0.735449	-0.195968	0
2002.26	0.698762	-0.195967	0
2002.29	0.663086	-0.195964	0
2002.32	0.626761	-0.19597	0
2002.36	0.590474	-0.195966	0
2002.4	0.554206	-0.195963	0
2002.44	0.519236	-0.195968	0
2002.48	0.484037	-0.195966	0
2002.52	0.448476	-0.195963	0
2002.57	0.412704	-0.195966	0
2002.61	0.378002	-0.195972	0
2002.66	0.343166	-0.195968	0
2002.71	0.30831	-0.195964	0
2002.77	0.273169	-0.19597	0
2002.82	0.237531	-0.195975	0
2002.88	0.203305	-0.195969	0
2002.94	0.168603	-0.195968	0
2003	0.133881	-0.195968	0
2003.07	0.0995033	-0.195964	0
2003.14	0.0652397	-0.195964	0
2003.21	0.0310717	-0.195972	0
2003.3	-0.00351635	-0.19597	0
2003.39	-0.0374363	-0.195967	0
2003.51	-0.0716807	-0.19597	0
2009.61	-0.0656679	-0.195972	0
2025.39	-0.0983852	-0.195971	0
2069.73	0.897986	-0.195968	0
2069.75	0.857825	-0.195968	0
2069.77	0.819285	-0.195971	0
2069.79	0.78067	-0.195973	0
2069.82	0.743314	-0.195966	0
2069.85	0.704908	-0.195966	0
2069.88	0.668297	-0.195964	0
2069.91	0.632506	-0.195964	0
2069.94	0.596964	-0.195972	0
2069.98	0.561192	-0.195963	0
2070.02	0.525669	-0.195964	0
2070.06	0.489535	-0.195966	0
2070.1	0.454393	-0.195968	0
2070.14	0.419156	-0.195968	0
2070.19	0.3839	-0.195971	0
2070.23	0.348338	-0.195961	0
2070.28	0.313598	-0.195966	0
2070.33	0.278456	-0.195973	0
2070.38	0.243639	-0.195966	0
2070.44	0.207658	-0.195969	0
2070.49	0.17389	-0.195964	0
2070.55	0.13936	-0.195969	0
2070.62	0.104409	-0.195966	0
2070.68	0.0695919	-0.195967	0
2070.76	0.0348893	-0.195964	0
2070.83	0.000301307	-0.195971	0
2070.92	-0.0343249	-0.195964	0
2071.04	-0.0686075	-0.195967	0
2081.33	-0.0747921	-0.19597	0
2096.82	-0.1077	-0.19597	0
2135.42	0.884376	-0.195968	0
2135.44	0.843165	-0.195971	0
2135.46	0.805675	-0.195969	0
2135.48	0.767728	-0.195964	0
2135.51	0.730849	-0.195968	0
2135.54	0.694333	-0.195967	0
2135.57	0.65776	-0.195968	0
2135.6	0.621282	-0.195968	0
2135.63	0.585243	-0.195964	0
2135.67	0.548937	-0.195974	0
2135.71	0.513223	-0.195968	0
2135.74	0.477853	-0.195965	0
2135.78	0.442329	-0.195964	0
2135.83	0.406577	-0.195966	0
2135.87	0.371626	-0.195974	0
2135.91	0.336198	-0.195968	0
2135.96	0.300942	-0.19597	0
2136.01	0.26666	-0.195967	0
2136.06	0.2319	-0.195968	0
2136.11	0.19693	-0.195969	0
2136.17	0.162113	-0.195964	0
2136.23	0.126742	-0.195968	0
2136.29	0.0922879	-0.195971	0
2136.36	0.0568791	-0.195973	0
2136.43	0.0221765	-0.195962	0
2136.51	-0.0121824	-0.195964	0
2136.59	-0.0462551	-0.19597	0
2136.84	-0.0795833	-0.195969	0
2153.83	-0.0960183	-0.195971	0
2199.73	0.900067	-0.195968	0
2199.74	0.859256	-0.19597	0
2199.76	0.820163	-0.195965	0
2199.78	0.782082	-0.195966	0
2199.81	0.743715	-0.195968	0
2199.83	0.707103	-0.195966	0
2199.86	0.670568	-0.195969	0
2199.89	0.633671	-0.195964	0
2199.92	0.597517	-0.195968	0
2199.96	0.561879	-0.195968	0
2199.99	0.525268	-0.195966	0
2200.03	0.489229	-0.195971	0
2200.07	0.453801	-0.195966	0
2200.11	0.417686	-0.19597	0
2200.15	0.382526	-0.195966	0
2200.2	0.346888	-0.19597	0
2200.24	0.311536	-0.195967	0
2200.29	0.276318	-0.195966	0
2200.34	0.241444	-0.19597	0
2200.39	0.206436	-0.19597	0
2200.44	0.170798	-0.195967	0
2200.5	0.136325	-0.195968	0
2200.56	0.101775	-0.195972	0
2200.62	0.0669004	-0.195963	0
2200.69	0.0324842	-0.195971	0
2200.76	-0.00206564	-0.195967	0
2200.84	-0.0364628	-0.195968	0
2200.97	-0.0703636	-0.195968	0
2214.64	-0.0932505	-0.195967	0
2262.99	0.904209	-0.19597	0
2263.01	0.862253	-0.195964	0
2263.03	0.822473	-0.195971	0
2263.05	0.785232	-0.195961	0
2263.07	0.74654	-0.195971	0
2263.1	0.710157	-0.19597	0
2263.13	0.673622	-0.195971	0
2263.16	0.636534	-0.19597	0
2263.19	0.60019	-0.195973	0
2263.22	0.564437	-0.195977	0
2263.25	0.527921	-0.195965	0
2263.29	0.492245	-0.195967	0
2263.33	0.456455	-0.195968	0
2263.37	0.420664	-0.195963	0
2263.41	0.384129	-0.195957	0
2263.45	0.348415	-0.195971	0
2263.5	0.312529	-0.19597	0
2263.54	0.277483	-0.195969	0
2263.59	0.24194	-0.195964	0
2263.64	0.207524	-0.195968	0
2263.69	0.172669	-0.195964	0
2263.75	0.137737	-0.195971	0
2263.81	0.101966	-0.195964	0
2263.87	0.0673394	-0.195964	0
2263.94	0.0330568	-0.195969	0
2264.01	-0.00156935	-0.195972	0
2264.09	-0.0361765	-0.195972	0
2264.21	-0.0703636	-0.195964	0
2278.66	-0.099206	-0.195973	0
2325.56	0.896192	-0.195968	0
2325.57	0.856431	-0.195968	0
2325.59	0.816098	-0.19597	0
2325.61	0.778379	-0.195968	0
2325.64	0.738561	-0.195966	0
2325.66	0.700823	-0.195961	0
2325.69	0.664002	-0.195966	0
2325.72	0.626512	-0.195968	0
2325.75	0.589901	-0.195968	0
2325.78	0.553232	-0.195968	0
2325.82	0.516545	-0.195971	0
2325.86	0.480716	-0.19597	0
2325.89	0.444696	-0.195971	0
2325.93	0.408963	-0.19597	0
2325.97	0.372714	-0.195971	0
2326.01	0.337764	-0.19597	0
2326.06	0.302698	-0.195968	0
2326.1	0.26645	-0.195969	0
2326.15	0.230487	-0.195964	0
2326.2	0.19567	-0.195965	0
2326.26	0.160567	-0.195968	0
2326.31	0.125502	-0.195968	0
2326.37	0.09036	-0.195968	0
2326.43	0.0556765	-0.19597	0
2326.5	0.0206304	-0.195973	0
2326.57	-0.0137668	-0.195964	0
2326.65	-0.0478012	-0.195967	0
2330.5	-0.0811103	-0.195966	0
2352.22	-0.114076	-0.195975	0
2387.46	0.876894	-0.195967	0
2387.48	0.834155	-0.195968	0
2387.5	0.796246	-0.19597	0
2387.52	0.757	-0.195969	0
2387.54	0.718556	-0.195971	0
2387.57	0.680399	-0.195968	0
2387.6	0.643997	-0.195967	0
2387.63	0.607768	-0.195966	0
2387.66	0.570946	-0.195966	0
2387.69	0.53443	-0.195966	0
2387.73	0.49759	-0.195974	0
2387.76	0.46157	-0.195974	0
2387.8	0.425627	-0.195968	0
2387.84	0.389817	-0.195973	0
2387.88	0.35437	-0.195964	0
2387.92	0.31837	-0.195971	0
2387.97	0.28277	-0.195967	0
2388.01	0.248068	-0.195966	0
2388.06	0.21306	-0.195971	0
2388.11	0.178204	-0.195972	0
2388.16	0.142414	-0.195968	0
2388.22	0.107368	-0.195968	0
2388.28	0.0717107	-0.195965	0
2388.34	0.0365118	-0.195963	0
2388.42	0.00108393	-0.19597	0
2388.49	-0.0333896	-0.195975	0
2388.61	-0.0675385	-0.195965	0
2401.35	-0.100714	-0.19597	0
2448.78	0.891458	-0.19597	0
2448.8	0.851735	-0.195968	0
2448.82	0.810772	-0.195973	0
2448.84	0.772996	-0.195966	0
2448.86	0.73501	-0.195973	0
2448.89	0.697845	-0.195969	0
2448.91	0.66194	-0.195969	0
2448.94	0.62447	-0.19597	0
2448.97	0.587286	-0.195968	0
2449	0.550751	-0.195968	0
2449.03	0.514789	-0.195966	0
2449.07	0.478654	-0.195973	0
2449.11	0.442177	-0.195969	0
2449.14	0.406081	-0.195967	0
2449.18	0.370156	-0.195971	0
2449.22	0.335339	-0.195965	0
2449.26	0.300732	-0.195964	0
2449.31	0.265362	-0.195971	0
2449.35	0.229915	-0.19597	0
2449.4	0.194811	-0.195969	0
2449.45	0.159383	-0.19597	0
2449.51	0.12449	-0.195971	0
2449.56	0.0902454	-0.195971	0
2449.62	0.0547984	-0.195972	0
2449.69	0.0203059	-0.195961	0
2449.76	-0.0145303	-0.195967	0
2449.84	-0.0489084	-0.195966	0
2452.76	-0.0830192	-0.19597	0
2479	-0.115832	-0.195973	0
2509.66	0.872141	-0.195964	0
2509.68	0.830948	-0.195968	0
2509.7	0.791168	-0.195973	0
2509.72	0.753774	-0.195967	0
2509.74	0.715617	-0.195974	0
2509.77	0.678242	-0.195967	0
2509.8	0.641096	-0.19597	0
2509.83	0.604904	-0.195964	0
2509.85	0.569152	-0.195971	0
2509.89	0.531968	-0.19597	0
2509.92	0.494822	-0.195968	0
2509.96	0.458726	-0.195972	0
2509.99	0.422764	-0.195971	0
2510.03	0.386229	-0.195969	0
2510.07	0.350018	-0.195975	0
2510.11	0.315297	-0.19597	0
2510.15	0.2788	-0.195967	0
2510.2	0.243906	-0.195966	0
2510.24	0.207619	-0.195966	0
2510.29	0.172325	-0.195973	0
2510.34	0.136993	-0.195969	0
2510.4	0.101584	-0.195975	0
2510.46	0.0669386	-0.195967	0
2510.52	0.0323697	-0.195973	0
2510.59	-0.00177932	-0.195967	0
2510.67	-0.0365773	-0.195968	0
2510.79	-0.0701536	-0.195977	0
2524.08	-0.103005	-0.195971	0
2545.65	-0.117073	-0.19597	0