Folder: SUMMER-JOB-2024-MATERIALS-PHYSICS/EXPERIMENTAL/DATA/month-old_I-cell_passivation/2024-06-11_Exploration-measurement-moth-old-I-cells

Note: EXPERIMENTAL/DATA/month-old_I-cell_passivation/2024-06-11_Exploration-measurement-moth-old-I-cells/2024-06-11_month-old-I-cell_built-2024-05-16-old-OCV-2.5V_deltaX-110.3mm_01_OCV_C02.txt
time/s	<Ewe/V>	error	
9.999999747378752E+000	2.4368823E+000	0
1.999999949475750E+001	2.4377182E+000	0
2.999999924213625E+001	2.4385428E+000	0
3.999999898951501E+001	2.4393508E+000	0
4.999999873689376E+001	2.4401438E+000	0
5.999979848427756E+001	2.4409189E+000	0

File: 2024-06-11_month-old-I-cell_built-2024-05-16-old-OCV-2.2V_deltaX-110.0mm_02_MB_C04.txt
time/s	Ewe/V	I/mA	error
60.053	2.48877	-0.0250249	0
60.1492	0.0094609	-9.93664	0
60.1568	0.00938454	-9.55202	0
60.1652	0.00944181	-9.15964	0
60.1736	0.00938454	-8.79665	0
60.1832	0.00940363	-8.41343	0
60.1932	0.00940363	-8.04542	0
60.2044	0.00940363	-7.66596	0
60.2164	0.00942272	-7.29177	0
60.2292	0.00934635	-6.92478	0
60.2432	0.00936545	-6.5532	0
60.2584	0.00936545	-6.18086	0
60.2744	0.00940363	-5.81833	0
60.2918	0.00930818	-5.45229	0
60.3106	0.00944181	-5.08828	0
60.3312	0.00940363	-4.72918	0
60.3542	0.0094609	-4.3704	0
60.381	0.00940363	-4.00773	0
60.412	0.00934635	-3.64818	0
60.4488	0.00932727	-3.29226	0
60.494	0.00936545	-2.93653	0
60.551	0.00934635	-2.58176	0
60.626	0.00942272	-2.22641	0
60.7318	0.00942272	-1.86966	0
60.8916	0.00942272	-1.51686	0
61.1654	0.00930818	-1.16431	0
61.7026	0.00942272	-0.812974	0
63.2264	0.00942272	-0.461827	0
87.054	0.00938454	-0.127634	0
157.054	0.00936545	-0.0596276	0
227.054	0.00934635	-0.041282	0
297.054	0.00938454	-0.0324985	0
367.054	0.00938454	-0.0272293	0
437.054	0.00942272	-0.0236099	0
507.054	0.0094609	-0.0208093	0
577.054	0.00938454	-0.0187156	0
647.054	0.00936545	-0.0169049	0
717.054	0.00934635	-0.0153965	0
787.054	0.00936545	-0.0141991	0
857.054	0.0094609	-0.0130603	0
927.054	0.00934635	-0.0122447	0
997.054	0.00923181	-0.0113381	0
1067.05	0.00934635	-0.0106732	0
1137.05	0.00938454	-0.0100383	0
1207.05	0.00942272	-0.00946951	0
1277.05	0.00938454	-0.00885239	0
1347.05	0.00938454	-0.0083307	0
1417.05	0.00930818	-0.00792034	0
1487.05	0.00942272	-0.00750108	0
1557.05	0.00932727	-0.00710981	0
1627.05	0.00944181	-0.00675162	0
1697.05	0.00942272	-0.00641761	0
1767.05	0.00942272	-0.00612431	0
1837.05	0.00936545	-0.00580048	0
1907.05	0.00942272	-0.00554791	0
1977.05	0.00940363	-0.00530551	0
2047.05	0.00938454	-0.00504021	0
2117.05	0.00942272	-0.00484744	0
2187.05	0.00934635	-0.00464958	0
2257.05	0.00936545	-0.00446969	0
2327.05	0.00940363	-0.00430406	0
2397.05	0.00934635	-0.00412372	0
2467.05	0.00936545	-0.00396744	0
2537.05	0.00936545	-0.00384814	0
2607.05	0.00940363	-0.00371956	0
2677.05	0.00938454	-0.00359485	0
2747.05	0.00934635	-0.00346054	0
2817.05	0.00936545	-0.00333335	0
2887.05	0.00938454	-0.00325422	0
2957.05	0.00940363	-0.00314664	0
3027.05	0.00942272	-0.00307363	0
3097.05	0.00936545	-0.00297178	0
3167.05	0.00936545	-0.00289698	0
3237.05	0.00930818	-0.00281684	0
3307.05	0.00940363	-0.00271683	0
3377.05	0.00938454	-0.00268278	0
3447.05	0.00934635	-0.00257023	0
3517.05	0.00938454	-0.00250199	0
3587.05	0.00942272	-0.00246322	0
3657.05	0.00934635	-0.00240186	0
3727.05	0.00934635	-0.0023326	0
3797.05	0.00934635	-0.00230631	0
3867.05	0.00932727	-0.00223068	0
3937.05	0.00940363	-0.0021923	0
4007.05	0.00928908	-0.00213373	0
4077.05	0.00928908	-0.00210674	0
4147.05	0.00926999	-0.00204137	0
4217.05	0.00934635	-0.00200235	0
4287.05	0.00934635	-0.00194416	0
4357.05	0.00942272	-0.00192004	0
4427.05	0.00932727	-0.00188363	0
4497.05	0.00932727	-0.00184467	0
4567.05	0.00934635	-0.0018178	0
4637.05	0.00938454	-0.00176739	0
4707.05	0.00944181	-0.00173435	0
4777.05	0.00928908	-0.00170761	0
4847.05	0.00934635	-0.00166796	0
4917.05	0.00932727	-0.00165599	0
4987.05	0.00934635	-0.00161958	0
5057.05	0.00928908	-0.00161327	0
5127.05	0.00942272	-0.00157495	0
5197.05	0.00932727	-0.00155108	0
5267.05	0.0094609	-0.00154242	0
5337.05	0.00930818	-0.00149602	0
5407.05	0.00936545	-0.00148399	0
5477.05	0.00934635	-0.0014302	0
5547.05	0.00934635	-0.00143459	0
5617.05	0.00944181	-0.00140231	0
5687.05	0.00942272	-0.00140951	0
5757.05	0.00940363	-0.00136711	0
5827.05	0.00942272	-0.00136934	0
5897.05	0.00926999	-0.00132338	0
5967.05	0.0092509	-0.00131886	0
6037.05	0.00930818	-0.00126908	0
6107.05	0.00942272	-0.00128996	0
6177.05	0.00942272	-0.00126131	0
6247.05	0.00940363	-0.00125329	0
6317.05	0.00944181	-0.00122668	0
6387.05	0.00947999	-0.00122102	0
6457.05	0.00936545	-0.00118467	0
6527.05	0.00940363	-0.00120027	0
6597.05	0.00940363	-0.00116507	0
6667.05	0.00934635	-0.00117449	0
6737.05	0.0094609	-0.00114298	0
6807.05	0.00953726	-0.001127	0
6877.05	0.00938454	-0.00111987	0
6947.05	0.00936545	-0.00110383	0
7017.05	0.00934635	-0.00110771	0
7087.05	0.00932727	-0.00107397	0
7157.05	0.00936545	-0.0010797	0
7227.05	0.00940363	-0.00105023	0
7297.05	0.00930818	-0.0010536	0
7367.05	0.00944181	-0.00102979	0
7437.05	0.00940363	-0.00102795	0
7507.05	0.00936545	-0.0010114	0
7577.05	0.00923181	-0.000997074	0
7647.05	0.00936545	-0.0010021	0
7717.05	0.00944181	-0.000979696	0
7787.05	0.00940363	-0.000980969	0
7857.05	0.00934635	-0.000979632	0
7927.05	0.00936545	-0.000957543	0
7997.05	0.0094609	-0.000956461	0
8067.05	0.00938454	-0.000947931	0
8137.05	0.00942272	-0.000928134	0
8207.05	0.00942272	-0.000943539	0
8277.05	0.00936545	-0.000929216	0
8347.05	0.00936545	-0.000923041	0
8417.05	0.00934635	-0.000909355	0
8487.05	0.00940363	-0.000894523	0
8557.05	0.00934635	-0.000896878	0
8627.05	0.00942272	-0.000886884	0
8697.05	0.00949908	-0.000873198	0
8767.05	0.00940363	-0.000904644	0
8837.05	0.00936545	-0.0008809	0
8907.05	0.00936545	-0.000844488	0
8977.05	0.00940363	-0.000845952	0
9047.05	0.00932727	-0.000845698	0
9117.05	0.00942272	-0.000865113	0
9187.05	0.00944181	-0.000817816	0
9257.05	0.00936545	-0.000828256	0
9327.05	0.00932727	-0.000814633	0
9397.05	0.00949908	-0.000816416	0
9467.05	0.00938454	-0.00081788	0
9537.05	0.00942272	-0.00080935	0
9607.05	0.00932727	-0.000789425	0
9677.05	0.00936545	-0.000804512	0
9747.05	0.00930818	-0.000780513	0
9817.05	0.00938454	-0.000780258	0
9887.05	0.00944181	-0.000781722	0
9957.05	0.00944181	-0.000773192	0
10027.1	0.00940363	-0.00079178	0
10097.1	0.00938454	-0.000750531	0
10167.1	0.00938454	-0.000773638	0
10237.1	0.00928908	-0.00072876	0
10307.1	0.00930818	-0.000747539	0
10377.1	0.00936545	-0.000730861	0
10447.1	0.00930818	-0.000718829	0
10517.1	0.00938454	-0.000742382	0
10587.1	0.00926999	-0.000728187	0
10657.1	0.00944181	-0.000738308	0
10727.1	0.00932727	-0.000728887	0
10797.1	0.00928908	-0.000705016	0
10867.1	0.00938454	-0.000706671	0
10937.1	0.00947999	-0.000725959	0
11007.1	0.00940363	-0.000688783	0
11077.1	0.00949908	-0.000695276	0
11147.1	0.0094609	-0.000697186	0
11217.1	0.00951817	-0.000681144	0
11287.1	0.00936545	-0.00069012	0
11357.1	0.00932727	-0.000687383	0
11427.1	0.00938454	-0.000689547	0
11497.1	0.00930818	-0.000689675	0
11567.1	0.0092509	-0.000662429	0
11637.1	0.00934635	-0.000653008	0
11707.1	0.00928908	-0.000673187	0
11777.1	0.00936545	-0.000660774	0
11847.1	0.00942272	-0.000668859	0
11917.1	0.00928908	-0.00065479	0
11987.1	0.00942272	-0.000673569	0
12057.1	0.00940363	-0.000635821	0
12127.1	0.00936545	-0.000643014	0
12197.1	0.00944181	-0.000662302	0
12267.1	0.00938454	-0.00063111	0
12337.1	0.00926999	-0.000640022	0
12407.1	0.0092509	-0.000613986	0
12477.1	0.00940363	-0.000639513	0
12547.1	0.00934635	-0.000622134	0
12617.1	0.00938454	-0.000642441	0
12687.1	0.00936545	-0.000602464	0
12757.1	0.00940363	-0.000610931	0
12827.1	0.00944181	-0.000627545	0
12897.1	0.00932727	-0.000608512	0
12967.1	0.00930818	-0.000612459	0
13037.1	0.00928908	-0.000605711	0
13107.1	0.00940363	-0.000622771	0
13177.1	0.00947999	-0.000610803	0
13247.1	0.00947999	-0.000613668	0
13317.1	0.00936545	-0.000600427	0
13387.1	0.00934635	-0.000605584	0
13457.1	0.00955635	-0.00061214	0
13527.1	0.00930818	-0.000610358	0
13597.1	0.00938454	-0.000607048	0
13667.1	0.00938454	-0.000603928	0
13737.1	0.00930818	-0.00060692	0
13807.1	0.00942272	-0.000608003	0
13877.1	0.00934635	-0.00061405	0
13947.1	0.00936545	-0.000579421	0
14017.1	0.0094609	-0.000583113	0
14087.1	0.00944181	-0.000572991	0
14157.1	0.0094609	-0.000591706	0
14227.1	0.00938454	-0.000572482	0
14297.1	0.00934635	-0.000549184	0
14367.1	0.00940363	-0.000578402	0
14437.1	0.00944181	-0.000557077	0
14507.1	0.00936545	-0.000553576	0
14577.1	0.00932727	-0.000549693	0
14647.1	0.00940363	-0.000565671	0
14717.1	0.00947999	-0.000556886	0
14787.1	0.00942272	-0.000560769	0
14857.1	0.00940363	-0.00054199	0
14927.1	0.00942272	-0.000556568	0
14997.1	0.00944181	-0.000549247	0
15067.1	0.00936545	-0.000551602	0
15137.1	0.00934635	-0.000558923	0
15207.1	0.00944181	-0.000553385	0
15277.1	0.00938454	-0.000536388	0
15347.1	0.00938454	-0.000530468	0
15417.1	0.00938454	-0.000550457	0
15487.1	0.00940363	-0.000547656	0
15557.1	0.00934635	-0.000532314	0
15627.1	0.00934635	-0.00055434	0
15697.1	0.0094609	-0.000512071	0
15767.1	0.00938454	-0.000530023	0
15837.1	0.00938454	-0.000524039	0
15907.1	0.00942272	-0.000533078	0
15977.1	0.00936545	-0.00052875	0
16047.1	0.00938454	-0.000476487	0
16117.1	0.0094609	-0.000512135	0
16187.1	0.00942272	-0.000516336	0
16257.1	0.00940363	-0.00049743	0
16327.1	0.00940363	-0.000516909	0
16397.1	0.00934635	-0.000513917	0
16467.1	0.00938454	-0.000502905	0
16537.1	0.00940363	-0.000521811	0
16607.1	0.00930818	-0.000498067	0
16677.1	0.00944181	-0.000513981	0
16747.1	0.00942272	-0.00050526	0
16817.1	0.00938454	-0.000508188	0
16887.1	0.00942272	-0.000483362	0
16957.1	0.00930818	-0.000501186	0
17027.1	0.00936545	-0.000503159	0
17097.1	0.00936545	-0.000489728	0
17167.1	0.00934635	-0.000471968	0
17237.1	0.00942272	-0.000483617	0
17307.1	0.00934635	-0.00048107	0
17377.1	0.00942272	-0.000463947	0
17447.1	0.00932727	-0.000481643	0
17517.1	0.00934635	-0.000483999	0
17587.1	0.00926999	-0.000459172	0
17657.1	0.00930818	-0.000483744	0
17727.1	0.00938454	-0.000478397	0
17797.1	0.00938454	-0.000443322	0
17867.1	0.00938454	-0.000453571	0
17937.1	0.00928908	-0.000490237	0
18007.1	0.00940363	-0.000459618	0
18060.1	0.00928908	-0.000469549	0

File: 2024-06-11_month-old-I-cell_built-2024-05-16-old-OCV-2.2V_deltaX-110.0mm_04_CP_C04.txt
time/s	Ewe/V	I/mA	error
18060.2	-0.00469451	-0.19473	0
18060.2	-0.0152569	-0.195979	0
18060.2	-0.0183304	-0.195979	0
18060.2	-0.0207166	-0.195982	0
18060.2	-0.0228547	-0.195983	0
18060.2	-0.0250119	-0.195984	0
18060.2	-0.0272646	-0.19597	0
18060.2	-0.0297081	-0.195984	0
18060.2	-0.0319035	-0.195977	0
18060.2	-0.034347	-0.195974	0
18060.2	-0.0365996	-0.195982	0
18060.2	-0.0388714	-0.19598	0
18060.2	-0.040914	-0.195985	0
18060.2	-0.0431094	-0.195983	0
18060.2	-0.0455529	-0.195984	0
18060.2	-0.0478437	-0.195983	0
18060.2	-0.0500773	-0.195981	0
18060.2	-0.0522344	-0.195979	0
18060.2	-0.0543535	-0.195979	0
18060.2	-0.0565488	-0.195986	0
18060.2	-0.0587633	-0.195982	0
18060.2	-0.0609777	-0.19598	0
18060.2	-0.0632304	-0.195978	0
18060.2	-0.0652921	-0.195973	0
18060.3	-0.0674684	-0.195984	0
18060.3	-0.0696446	-0.195981	0
18060.3	-0.0718209	-0.195983	0
18060.3	-0.074169	-0.19598	0
18060.3	-0.0765744	-0.195979	0
18060.3	-0.0787315	-0.195977	0
18060.3	-0.0808887	-0.195979	0
18060.3	-0.083065	-0.195975	0
18060.3	-0.0851649	-0.195981	0
18060.3	-0.087303	-0.195979	0
18060.3	-0.0895175	-0.195978	0
18060.3	-0.0918465	-0.195984	0
18060.3	-0.0940227	-0.195979	0
18060.3	-0.0961036	-0.195979	0
18060.3	-0.0982226	-0.195979	0
18060.3	-0.100322	-0.195984	0
18060.3	-0.102499	-0.195977	0
18060.3	-0.104675	-0.195986	0
18060.3	-0.10687	-0.195984	0
18060.3	-0.108989	-0.195977	0
18060.3	-0.111185	-0.195984	0
18060.3	-0.113323	-0.195981	0
18060.3	-0.115499	-0.195977	0
18060.3	-0.117637	-0.195986	0
18060.3	-0.119775	-0.195983	0
18060.3	-0.121932	-0.195981	0
18060.3	-0.124032	-0.195977	0
18060.4	-0.126228	-0.195971	0
18060.4	-0.12827	-0.195981	0
18060.4	-0.130409	-0.195974	0
18060.4	-0.132489	-0.195979	0
18060.4	-0.134627	-0.195981	0
18060.4	-0.136766	-0.19598	0
18060.4	-0.138846	-0.195984	0
18060.4	-0.140965	-0.195975	0
18060.4	-0.143027	-0.19598	0
18060.4	-0.145222	-0.19598	0
18060.4	-0.147361	-0.195974	0
18060.4	-0.149499	-0.195979	0
18060.4	-0.151637	-0.195982	0
18060.4	-0.153756	-0.195979	0
18060.4	-0.155856	-0.195986	0
18060.4	-0.158032	-0.195982	0
18060.4	-0.160208	-0.195977	0
18060.5	-0.162327	-0.195982	0
18060.5	-0.164446	-0.195977	0
18060.5	-0.166584	-0.19598	0
18060.5	-0.168665	-0.195977	0
18060.5	-0.170784	-0.195982	0
18060.5	-0.172846	-0.195979	0
18060.5	-0.174908	-0.195977	0
18060.5	-0.176988	-0.195978	0
18060.5	-0.179279	-0.195979	0
18060.5	-0.181532	-0.195981	0
18060.5	-0.183727	-0.195979	0
18060.6	-0.185884	-0.195982	0
18060.6	-0.187927	-0.195985	0
18060.6	-0.190008	-0.19598	0
18060.6	-0.192165	-0.195986	0
18060.6	-0.194189	-0.195981	0
18060.6	-0.196289	-0.195982	0
18060.7	-0.194208	-0.195982	0
18060.7	-0.191974	-0.195981	0
18060.7	-0.189798	-0.195981	0
18060.8	-0.187736	-0.195988	0
18060.8	-0.185674	-0.195981	0
18060.8	-0.183422	-0.195982	0
18060.8	-0.18136	-0.195978	0
18060.8	-0.179165	-0.19598	0
18060.8	-0.177122	-0.195982	0
18060.8	-0.175041	-0.195977	0
18060.8	-0.17296	-0.195984	0
18060.8	-0.170899	-0.195979	0
18060.9	-0.168837	-0.195982	0
18060.9	-0.166756	-0.195981	0
18060.9	-0.164637	-0.195982	0
18060.9	-0.162575	-0.19598	0
18060.9	-0.160533	-0.195984	0
18060.9	-0.158414	-0.195984	0
18060.9	-0.156276	-0.195991	0
18061	-0.154176	-0.195983	0
18061	-0.152095	-0.195984	0
18061	-0.149957	-0.195982	0
18061	-0.147838	-0.195981	0
18061	-0.1457	-0.195979	0
18061.1	-0.1436	-0.195982	0
18061.1	-0.141538	-0.195981	0
18061.1	-0.139457	-0.195984	0
18061.2	-0.1373	-0.19598	0
18061.2	-0.135219	-0.195981	0
18061.3	-0.133157	-0.195987	0
18061.3	-0.131077	-0.195982	0
18061.4	-0.129053	-0.195981	0
18061.6	-0.126953	-0.195977	0
18061.9	-0.124872	-0.195982	0
18063.1	-0.12283	-0.195983	0
18075.9	-0.121322	-0.195983	0
18095.9	-0.12136	-0.195984	0
18115.9	-0.120978	-0.195984	0
18135.9	-0.120348	-0.195977	0
18155.9	-0.119394	-0.195985	0
18175.9	-0.118458	-0.195981	0
18195.9	-0.117427	-0.195983	0
18215.9	-0.116244	-0.195986	0
18235.9	-0.115289	-0.195986	0
18255.9	-0.114144	-0.195987	0
18275.9	-0.112998	-0.195981	0
18295.9	-0.111967	-0.195989	0
18315.9	-0.110937	-0.195981	0
18335.9	-0.11002	-0.195985	0
18355.9	-0.109085	-0.195982	0
18375.9	-0.108264	-0.195982	0
18395.9	-0.107539	-0.195979	0
18415.9	-0.106679	-0.195985	0
18435.9	-0.105859	-0.195983	0
18455.9	-0.105038	-0.195984	0
18475.9	-0.104331	-0.19599	0
18495.9	-0.103663	-0.195984	0
18515.9	-0.103052	-0.195987	0
18535.9	-0.102346	-0.195986	0
18555.9	-0.101773	-0.195979	0
18575.9	-0.101277	-0.195986	0
18595.9	-0.100666	-0.195987	0
18615.9	-0.100246	-0.195985	0
18635.9	-0.0997689	-0.195988	0
18655.9	-0.0993489	-0.195988	0
18675.9	-0.0988334	-0.195986	0
18695.9	-0.0983753	-0.195984	0
18715.9	-0.0980508	-0.195982	0
18735.9	-0.0975544	-0.195986	0
18755.9	-0.0973062	-0.19599	0
18775.9	-0.0968672	-0.195983	0
18795.9	-0.0964663	-0.195986	0
18815.9	-0.096199	-0.195984	0
18835.9	-0.0957027	-0.195986	0
18855.9	-0.0952827	-0.195986	0
18875.9	-0.0949009	-0.195981	0
18895.9	-0.0948436	-0.195984	0
18915.9	-0.0944809	-0.195986	0
18935.9	-0.09408	-0.195983	0
18955.9	-0.0937937	-0.195989	0
18975.9	-0.0935264	-0.195979	0
18995.9	-0.09324	-0.195986	0
19015.9	-0.0932209	-0.195986	0
19035.9	-0.0930873	-0.195986	0
19055.9	-0.0927055	-0.195981	0
19075.9	-0.0924573	-0.195985	0
19095.9	-0.0922664	-0.195988	0
19115.9	-0.0920183	-0.195983	0
19135.9	-0.0916937	-0.195986	0
19155.9	-0.0915792	-0.195984	0
19175.9	-0.0911974	-0.195982	0
19195.9	-0.0910256	-0.195986	0
19215.9	-0.0907583	-0.195984	0
19235.9	-0.0904911	-0.195992	0
19255.9	-0.0904529	-0.195983	0
19275.9	-0.0900711	-0.195984	0
19295.9	-0.0898229	-0.195984	0
19315.9	-0.0897084	-0.195986	0
19335.9	-0.0894793	-0.195986	0
19355.9	-0.0892502	-0.195982	0
19375.9	-0.0891548	-0.195983	0
19395.9	-0.0889066	-0.195985	0
19415.9	-0.088792	-0.195987	0
19435.9	-0.088563	-0.195988	0
19455.9	-0.0884293	-0.195984	0
19475.9	-0.0882193	-0.195982	0
19495.9	-0.0882766	-0.195987	0
19515.9	-0.0880857	-0.195986	0
19535.9	-0.0878375	-0.195984	0
19555.9	-0.0876848	-0.195986	0
19575.9	-0.0874748	-0.195983	0
19595.9	-0.0872267	-0.195986	0
19615.9	-0.0871312	-0.195984	0
19635.9	-0.0871312	-0.195985	0
19655.9	-0.0869976	-0.195981	0
19675.9	-0.0867876	-0.19598	0
19695.9	-0.0865585	-0.195981	0
19715.9	-0.0863867	-0.195982	0
19735.9	-0.0862721	-0.195988	0
19755.9	-0.0860812	-0.195987	0
19775.9	-0.0858712	-0.195984	0
19795.9	-0.085814	-0.195984	0
19815.9	-0.0855658	-0.195981	0
19835.9	-0.0854894	-0.195991	0
19855.9	-0.0854322	-0.195981	0
19860.2	-0.0854704	-0.195982	0