Folder: SUMMER-JOB-2024-MATERIALS-PHYSICS/EXPERIMENTAL/DATA/month-old_I-cell_passivation/2024-06-11_Exploration-measurement-moth-old-I-cells (part 2)

File: 2024-06-11_month-old-I-cell_built-2024-05-16-old-OCV-2.5V_deltaX-110.3mm_02_MB_C02.txt
time/s	Ewe/V	I/mA	error
60.053	2.43093	-0.0250311	0
60.155	0.00940858	-9.42074	0
60.1676	0.00933223	-9.05923	0
60.1802	0.00925588	-8.68683	0
60.1928	0.00931314	-8.31157	0
60.2054	0.00933223	-7.93778	0
60.218	0.00929405	-7.57181	0
60.2306	0.0093895	-7.21373	0
60.2442	0.00935132	-6.83987	0
60.2582	0.00935132	-6.47028	0
60.2726	0.00937041	-6.10743	0
60.288	0.00933223	-5.73853	0
60.304	0.00931314	-5.37371	0
60.3208	0.00933223	-5.01054	0
60.339	0.00952311	-4.64037	0
60.3584	0.00944676	-4.27581	0
60.3796	0.00927497	-3.91493	0
60.4034	0.00927497	-3.55838	0
60.4318	0.00937041	-3.1968	0
60.4656	0.00940858	-2.84037	0
60.5076	0.00929405	-2.48554	0
60.5612	0.00946585	-2.13134	0
60.6312	0.0093895	-1.77791	0
60.7294	0.00944676	-1.42562	0
60.89	0.00929405	-1.0739	0
61.228	0.00937041	-0.720467	0
62.2674	0.00937041	-0.368506	0
85.3352	0.0093895	-0.0452836	0
155.335	0.00940858	-0.0146139	0
225.335	0.00937041	-0.00889325	0
295.335	0.00935132	-0.00634918	0
365.335	0.00935132	-0.00507206	0
435.335	0.00929405	-0.00425986	0
505.335	0.00929405	-0.0036657	0
575.335	0.0093895	-0.00328753	0
645.335	0.00931314	-0.00296106	0
715.335	0.0093895	-0.00273233	0
785.335	0.00937041	-0.00251271	0
855.335	0.00933223	-0.00234174	0
925.335	0.00927497	-0.00220567	0
995.335	0.00937041	-0.0020778	0
1065.34	0.0093895	-0.00196312	0
1135.34	0.00929405	-0.00189346	0
1205.34	0.00935132	-0.00179508	0
1275.34	0.00944676	-0.00172071	0
1345.34	0.00933223	-0.0016648	0
1415.34	0.00935132	-0.00159533	0
1485.34	0.00935132	-0.00156884	0
1555.34	0.00933223	-0.00148154	0
1625.34	0.0093895	-0.00143818	0
1695.34	0.00935132	-0.00140952	0
1765.34	0.00933223	-0.00136769	0
1835.34	0.00940858	-0.00132133	0
1905.34	0.00935132	-0.00128331	0
1975.34	0.0093895	-0.00124466	0
2045.34	0.00937041	-0.0012502	0
2115.34	0.00931314	-0.00118443	0
2185.34	0.0093895	-0.00116137	0
2255.34	0.00935132	-0.00115762	0
2325.34	0.00927497	-0.00112603	0
2395.34	0.00925588	-0.00108152	0
2465.34	0.0093895	-0.00107777	0
2535.34	0.00935132	-0.00105	0
2605.34	0.00937041	-0.00101231	0
2675.34	0.00933223	-0.00101632	0
2745.34	0.00937041	-0.000991741	0
2815.34	0.00933223	-0.000977031	0
2885.34	0.0093895	-0.000948059	0
2955.34	0.00935132	-0.000947167	0
3025.34	0.0092177	-0.000937934	0
3095.34	0.00931314	-0.00089075	0
3165.34	0.0093895	-0.000887503	0
3235.34	0.00935132	-0.000867126	0
3305.34	0.00931314	-0.00086044	0
3375.34	0.00931314	-0.0008549	0
3445.34	0.00946585	-0.00085662	0
3515.34	0.00935132	-0.000812237	0
3585.34	0.00935132	-0.00080727	0
3655.34	0.0093895	-0.000798228	0
3725.34	0.00933223	-0.00077556	0
3795.34	0.00927497	-0.000773204	0
3865.34	0.00937041	-0.000760214	0
3935.34	0.00937041	-0.000744167	0
4005.34	0.00942767	-0.000757157	0
4075.34	0.00937041	-0.000710865	0
4145.34	0.00937041	-0.000722963	0
4215.34	0.00933223	-0.000687241	0
4285.34	0.00929405	-0.000681319	0
4355.34	0.00933223	-0.000711692	0
4425.34	0.00931314	-0.000684757	0
4495.34	0.00927497	-0.000672914	0
4565.34	0.00942767	-0.000647252	0
4635.34	0.00931314	-0.00065674	0
4705.34	0.00942767	-0.000641903	0
4775.34	0.00929405	-0.000652537	0
4845.34	0.00935132	-0.000625029	0
4915.34	0.00935132	-0.000614013	0
4985.34	0.00925588	-0.000627194	0
5055.34	0.00929405	-0.000603888	0
5125.34	0.00929405	-0.000590899	0
5195.34	0.00929405	-0.000602933	0
5265.34	0.00925588	-0.000616878	0
5335.34	0.00933223	-0.000593509	0
5405.34	0.00925588	-0.000580137	0
5475.34	0.00935132	-0.000555622	0
5545.34	0.00923679	-0.000552884	0
5615.34	0.00931314	-0.00054849	0
5685.34	0.00935132	-0.00057084	0
5755.34	0.00933223	-0.000568039	0
5825.34	0.00940858	-0.000540085	0
5895.34	0.00940858	-0.000543905	0
5965.34	0.00935132	-0.000557914	0
6035.34	0.00931314	-0.00054295	0
6105.34	0.00931314	-0.000503726	0
6175.34	0.00933223	-0.000527159	0
6245.34	0.00931314	-0.000510794	0
6315.34	0.00933223	-0.000528114	0
6385.34	0.00935132	-0.0004922	0
6455.34	0.00933223	-0.00050761	0
6525.34	0.00937041	-0.000515251	0
6595.34	0.00937041	-0.000498377	0
6665.34	0.00923679	-0.000482904	0
6735.34	0.00929405	-0.000499268	0
6805.34	0.00933223	-0.000476409	0
6875.34	0.00931314	-0.000497995	0
6945.34	0.00917953	-0.000476918	0
7015.34	0.00937041	-0.000473097	0
7085.34	0.00931314	-0.00046501	0
7155.34	0.00931314	-0.000460489	0
7225.34	0.00929405	-0.000482713	0
7295.34	0.00931314	-0.000465775	0
7365.34	0.00931314	-0.000474753	0
7435.34	0.00935132	-0.000457751	0
7505.34	0.00931314	-0.000460553	0
7575.34	0.00925588	-0.000431262	0
7645.34	0.00931314	-0.000440368	0
7715.34	0.00937041	-0.000456669	0
7785.34	0.00940858	-0.000435847	0
7855.34	0.00927497	-0.00044387	0
7925.34	0.00929405	-0.00041668	0
7995.34	0.00933223	-0.000434319	0
8065.34	0.00927497	-0.000442915	0
8135.34	0.00937041	-0.000423685	0
8205.34	0.00927497	-0.00041235	0
8275.34	0.00929405	-0.000447945	0
8345.34	0.00937041	-0.000417444	0
8415.34	0.00935132	-0.000432345	0
8485.34	0.00929405	-0.000399233	0
8555.34	0.00937041	-0.000423876	0
8625.34	0.00933223	-0.000418145	0
8695.34	0.00925588	-0.000414451	0
8765.34	0.00940858	-0.000405346	0
8835.34	0.00916044	-0.000400952	0
8905.34	0.00923679	-0.000403754	0
8975.34	0.00935132	-0.000379939	0
9045.34	0.00937041	-0.000403754	0
9115.34	0.00931314	-0.000396686	0
9185.34	0.00937041	-0.000418017	0
9255.34	0.00933223	-0.000372998	0
9325.34	0.00944676	-0.000389045	0
9395.34	0.00937041	-0.000396941	0
9465.34	0.00929405	-0.000388854	0
9535.34	0.00940858	-0.000388217	0
9605.34	0.00937041	-0.000389363	0
9675.34	0.00935132	-0.000370642	0
9745.34	0.00937041	-0.000376309	0
9815.34	0.00931314	-0.000365039	0
9885.34	0.00935132	-0.000377456	0
9955.34	0.00942767	-0.000368987	0
10025.3	0.0093895	-0.000373317	0
10095.3	0.0093895	-0.000392547	0
10165.3	0.0092177	-0.000368032	0
10235.3	0.00931314	-0.000363001	0
10305.3	0.00942767	-0.000355678	0
10375.3	0.00933223	-0.000359053	0
10445.3	0.00927497	-0.000361982	0
10515.3	0.00923679	-0.000339632	0
10585.3	0.00931314	-0.00035466	0
10655.3	0.00937041	-0.000368987	0
10725.3	0.00937041	-0.000355933	0
10795.3	0.00933223	-0.000325177	0
10865.3	0.00940858	-0.000349247	0
10935.3	0.00925588	-0.000352112	0
11005.3	0.00948494	-0.000350648	0
11075.3	0.00925588	-0.000346382	0
11145.3	0.00940858	-0.000327406	0
11215.3	0.00933223	-0.000359372	0
11285.3	0.00933223	-0.000341478	0
11355.3	0.00931314	-0.000334856	0
11425.3	0.00923679	-0.000340842	0
11495.3	0.00937041	-0.000356442	0
11565.3	0.00944676	-0.000346254	0
11635.3	0.00937041	-0.000338167	0
11705.3	0.00944676	-0.000350648	0
11775.3	0.00931314	-0.000335939	0
11845.3	0.00931314	-0.000327024	0
11915.3	0.00933223	-0.000318491	0
11985.3	0.00931314	-0.000310404	0
12055.3	0.0093895	-0.000336894	0
12125.3	0.00931314	-0.000330845	0
12195.3	0.00925588	-0.000330208	0
12265.3	0.00935132	-0.000328807	0
12335.3	0.00927497	-0.000314798	0
12405.3	0.00937041	-0.000324541	0
12475.3	0.00935132	-0.000301999	0
12545.3	0.00931314	-0.000321739	0
12615.3	0.00925588	-0.000338549	0
12685.3	0.00927497	-0.000314989	0
12755.3	0.00929405	-0.000327151	0
12825.3	0.0093895	-0.000321484	0
12895.3	0.00935132	-0.000313206	0
12965.3	0.00933223	-0.000310468	0
13035.3	0.00929405	-0.000323904	0
13105.3	0.00933223	-0.000323203	0
13175.3	0.00927497	-0.000293212	0
13245.3	0.00927497	-0.000315117	0
13315.3	0.0093895	-0.000316708	0
13385.3	0.00931314	-0.000325559	0
13455.3	0.00935132	-0.000289328	0
13525.3	0.00923679	-0.000277739	0
13595.3	0.00929405	-0.000301235	0
13665.3	0.00935132	-0.000304801	0
13735.3	0.00933223	-0.000323522	0
13805.3	0.00933223	-0.000313907	0
13875.3	0.00937041	-0.000309831	0
13945.3	0.0093895	-0.000313461	0
14015.3	0.00925588	-0.000298306	0
14085.3	0.00935132	-0.000308558	0
14155.3	0.00927497	-0.00031518	0
14225.3	0.00931314	-0.000287354	0
14295.3	0.00923679	-0.000316135	0
14365.3	0.00935132	-0.000311041	0
14435.3	0.00935132	-0.000290283	0
14505.3	0.00933223	-0.000312633	0
14575.3	0.00935132	-0.000293148	0
14645.3	0.00933223	-0.000307857	0
14715.3	0.0093895	-0.000299006	0
14785.3	0.00937041	-0.000268697	0
14855.3	0.00931314	-0.000314926	0
14925.3	0.00935132	-0.000286844	0
14995.3	0.00940858	-0.000273791	0
15065.3	0.00933223	-0.000280286	0
15135.3	0.0093895	-0.000261055	0
15205.3	0.00927497	-0.000296841	0
15275.3	0.00935132	-0.000287799	0
15345.3	0.00933223	-0.000289519	0
15415.3	0.00935132	-0.000293467	0
15485.3	0.00935132	-0.000283915	0
15555.3	0.00925588	-0.000298879	0
15625.3	0.00942767	-0.000279904	0
15695.3	0.00935132	-0.000273027	0
15765.3	0.00935132	-0.000283342	0
15835.3	0.00935132	-0.000267168	0
15905.3	0.00933223	-0.000292384	0
15975.3	0.00937041	-0.000292066	0
16045.3	0.0092177	-0.000260801	0
16115.3	0.00940858	-0.000258063	0
16185.3	0.00935132	-0.000286908	0
16255.3	0.0093895	-0.000276083	0
16325.3	0.00935132	-0.000256025	0
16395.3	0.0093895	-0.000270862	0
16465.3	0.0093895	-0.000276529	0
16535.3	0.00937041	-0.000282196	0
16605.3	0.00929405	-0.000286972	0
16675.3	0.00940858	-0.000265576	0
16745.3	0.00946585	-0.000282069	0
16815.3	0.00942767	-0.000271053	0
16885.3	0.00935132	-0.000261947	0
16955.3	0.00946585	-0.000257935	0
17025.3	0.0093895	-0.000265194	0
17095.3	0.00935132	-0.000244627	0
17165.3	0.00927497	-0.000266468	0
17235.3	0.00942767	-0.000269652	0
17305.3	0.00931314	-0.000260037	0
17375.3	0.00937041	-0.000276592	0
17445.3	0.00944676	-0.00026443	0
17515.3	0.00925588	-0.000247747	0
17585.3	0.00929405	-0.000270671	0
17655.3	0.00929405	-0.000245264	0
17725.3	0.00940858	-0.000242271	0
17795.3	0.00923679	-0.000258126	0
17865.3	0.00929405	-0.000257935	0
17935.3	0.00935132	-0.000248384	0
18005.3	0.00935132	-0.00025195	0
18060.1	0.00944676	-0.000257553	0

File: 2024-06-11_month-old-I-cell_built-2024-05-16-old-OCV-2.5V_deltaX-110.3mm_04_CP_C02.txt
time/s	Ewe/V	I/mA	error
18060.2	-0.00602499	-0.194556	0
18060.2	-0.0203192	-0.195963	0
18060.2	-0.0236979	-0.195963	0
18060.2	-0.026752	-0.195963	0
18060.2	-0.0290617	-0.195964	0
18060.2	-0.0318486	-0.195966	0
18060.2	-0.03433	-0.195967	0
18060.2	-0.0366397	-0.195968	0
18060.2	-0.0387776	-0.195968	0
18060.2	-0.0415263	-0.195965	0
18060.2	-0.0440651	-0.195959	0
18060.2	-0.0463366	-0.19597	0
18060.2	-0.0486844	-0.195962	0
18060.2	-0.0510705	-0.195967	0
18060.2	-0.0535329	-0.195968	0
18060.2	-0.0557089	-0.195968	0
18060.2	-0.0580568	-0.195966	0
18060.2	-0.0604428	-0.195964	0
18060.2	-0.0629816	-0.195961	0
18060.2	-0.0652913	-0.195964	0
18060.2	-0.0673146	-0.195959	0
18060.2	-0.0697007	-0.195966	0
18060.2	-0.0720867	-0.195965	0
18060.2	-0.0741483	-0.195967	0
18060.2	-0.0764007	-0.195961	0
18060.2	-0.0785004	-0.195962	0
18060.2	-0.0809819	-0.195969	0
18060.2	-0.083177	-0.195967	0
18060.2	-0.0854676	-0.195963	0
18060.3	-0.0875292	-0.195959	0
18060.3	-0.089648	-0.195968	0
18060.3	-0.0922058	-0.195964	0
18060.3	-0.0945918	-0.195961	0
18060.3	-0.0967679	-0.195966	0
18060.3	-0.0989058	-0.195964	0
18060.3	-0.10112	-0.195956	0
18060.3	-0.103296	-0.195964	0
18060.3	-0.105472	-0.195959	0
18060.3	-0.107534	-0.195959	0
18060.3	-0.109901	-0.19597	0
18060.3	-0.112153	-0.195965	0
18060.3	-0.114348	-0.195968	0
18060.3	-0.116505	-0.195964	0
18060.3	-0.118529	-0.195968	0
18060.3	-0.120724	-0.19597	0
18060.3	-0.122785	-0.195964	0
18060.3	-0.124942	-0.195966	0
18060.3	-0.127118	-0.19597	0
18060.3	-0.129371	-0.195968	0
18060.3	-0.131566	-0.195964	0
18060.3	-0.133723	-0.195963	0
18060.3	-0.136013	-0.195965	0
18060.3	-0.138056	-0.195966	0
18060.3	-0.140213	-0.19597	0
18060.3	-0.142313	-0.195963	0
18060.3	-0.144431	-0.195963	0
18060.3	-0.146607	-0.195967	0
18060.3	-0.148803	-0.195963	0
18060.3	-0.151036	-0.195963	0
18060.3	-0.153174	-0.195961	0
18060.3	-0.155293	-0.195971	0
18060.4	-0.157488	-0.195959	0
18060.4	-0.159664	-0.195968	0
18060.4	-0.161878	-0.195966	0
18060.4	-0.163959	-0.195966	0
18060.4	-0.166039	-0.195966	0
18060.4	-0.16812	-0.19596	0
18060.4	-0.170182	-0.195961	0
18060.4	-0.172319	-0.195973	0
18060.4	-0.1744	-0.195966	0
18060.4	-0.176595	-0.195964	0
18060.4	-0.178657	-0.195965	0
18060.4	-0.180852	-0.195967	0
18060.4	-0.183047	-0.19597	0
18060.4	-0.185128	-0.195959	0
18060.4	-0.187361	-0.195968	0
18060.5	-0.189423	-0.195962	0
18060.5	-0.191522	-0.195961	0
18060.5	-0.193641	-0.195964	0
18060.5	-0.195817	-0.195964	0
18060.5	-0.197879	-0.19597	0
18060.6	-0.197879	-0.195973	0
18060.6	-0.195779	-0.195966	0
18060.6	-0.193641	-0.195967	0
18060.6	-0.191541	-0.195968	0
18060.6	-0.189403	-0.195969	0
18060.6	-0.187227	-0.195969	0
18060.6	-0.185147	-0.19597	0
18060.7	-0.183085	-0.195966	0
18060.7	-0.181005	-0.195964	0
18060.7	-0.178943	-0.195957	0
18060.7	-0.176786	-0.195965	0
18060.7	-0.174725	-0.195969	0
18060.7	-0.172606	-0.195966	0
18060.7	-0.170563	-0.195966	0
18060.7	-0.168425	-0.195963	0
18060.7	-0.166326	-0.195965	0
18060.7	-0.164264	-0.195963	0
18060.7	-0.162222	-0.195964	0
18060.7	-0.160007	-0.19596	0
18060.7	-0.157946	-0.195963	0
18060.8	-0.155827	-0.195972	0
18060.8	-0.15367	-0.195968	0
18060.8	-0.151437	-0.195966	0
18060.8	-0.149394	-0.195967	0
18060.8	-0.147276	-0.195967	0
18060.8	-0.14508	-0.19597	0
18060.8	-0.143057	-0.195963	0
18060.8	-0.140919	-0.195966	0
18060.9	-0.138839	-0.195959	0
18060.9	-0.136796	-0.195964	0
18060.9	-0.134715	-0.195969	0
18060.9	-0.132654	-0.195968	0
18060.9	-0.130554	-0.195964	0
18061	-0.128531	-0.195964	0
18061	-0.126469	-0.195968	0
18061	-0.124389	-0.19597	0
18061.1	-0.122289	-0.195966	0
18061.2	-0.120132	-0.195964	0
18061.3	-0.118013	-0.195967	0
18061.6	-0.11599	-0.195971	0
18063.3	-0.118032	-0.195966	0
18065	-0.120075	-0.195966	0
18076.5	-0.121125	-0.195967	0
18096.5	-0.11996	-0.195969	0
18116.5	-0.120056	-0.195969	0
18136.5	-0.120323	-0.195968	0
18156.5	-0.120743	-0.19597	0
18176.5	-0.121163	-0.195966	0
18196.5	-0.121506	-0.195968	0
18216.5	-0.121735	-0.195974	0
18236.5	-0.121774	-0.195968	0
18256.5	-0.121506	-0.195969	0
18276.5	-0.121525	-0.195971	0
18296.5	-0.121354	-0.195968	0
18316.5	-0.121048	-0.195963	0
18336.5	-0.120705	-0.195973	0
18356.5	-0.120495	-0.19597	0
18376.5	-0.120151	-0.195969	0
18396.5	-0.119598	-0.19597	0
18416.5	-0.119292	-0.19597	0
18436.5	-0.119082	-0.195968	0
18456.5	-0.118624	-0.19597	0
18476.5	-0.118204	-0.19597	0
18496.5	-0.117822	-0.195971	0
18516.5	-0.117555	-0.195968	0
18536.5	-0.117211	-0.195972	0
18556.5	-0.116944	-0.195969	0
18576.5	-0.116677	-0.195971	0
18596.5	-0.11641	-0.19597	0
18616.5	-0.116123	-0.195971	0
18636.5	-0.115933	-0.19597	0
18656.5	-0.115608	-0.195969	0
18676.5	-0.115322	-0.195972	0
18696.5	-0.115226	-0.195966	0
18716.5	-0.114883	-0.195967	0
18736.5	-0.114825	-0.195972	0
18756.5	-0.114539	-0.195972	0
18776.5	-0.11431	-0.195973	0
18796.5	-0.114196	-0.195968	0
18816.5	-0.114005	-0.195966	0
18836.5	-0.113909	-0.195966	0
18856.5	-0.113661	-0.195965	0
18876.5	-0.113489	-0.19597	0
18896.5	-0.113337	-0.19597	0
18916.5	-0.113069	-0.195975	0
18936.5	-0.112878	-0.195974	0
18956.5	-0.112802	-0.195974	0
18976.5	-0.11263	-0.19597	0
18996.5	-0.112401	-0.195966	0
19016.5	-0.112306	-0.195973	0
19036.5	-0.112191	-0.195977	0
19056.5	-0.112191	-0.195969	0
19076.5	-0.111886	-0.195967	0
19096.5	-0.111848	-0.195972	0
19116.5	-0.111657	-0.195969	0
19136.5	-0.111485	-0.195969	0
19156.5	-0.11139	-0.19597	0
19176.5	-0.111313	-0.195971	0
19196.5	-0.111199	-0.195973	0
19216.5	-0.111027	-0.195973	0
19236.5	-0.110836	-0.195973	0
19256.5	-0.110912	-0.195969	0
19276.5	-0.110721	-0.195971	0
19296.5	-0.110531	-0.195973	0
19316.5	-0.110473	-0.195973	0
19336.5	-0.110378	-0.195968	0
19356.5	-0.110321	-0.195973	0
19376.5	-0.110111	-0.195969	0
19396.5	-0.109939	-0.195968	0
19416.5	-0.109958	-0.19597	0
19436.5	-0.109862	-0.195971	0
19456.5	-0.109672	-0.195968	0
19476.5	-0.109538	-0.19597	0
19496.5	-0.109347	-0.195967	0
19516.5	-0.109271	-0.195975	0
19536.5	-0.109309	-0.195969	0
19556.5	-0.109233	-0.195972	0
19576.5	-0.109061	-0.195976	0
19596.5	-0.108946	-0.195975	0
19616.5	-0.108813	-0.195966	0
19636.5	-0.10866	-0.19597	0
19656.5	-0.108679	-0.195976	0
19676.5	-0.108488	-0.195969	0
19696.5	-0.108545	-0.195966	0
19716.5	-0.108221	-0.195967	0
19736.5	-0.108316	-0.195967	0
19756.5	-0.108145	-0.195974	0
19776.5	-0.108049	-0.195969	0
19796.5	-0.108049	-0.195971	0
19816.5	-0.107858	-0.195966	0
19836.5	-0.107801	-0.195968	0
19856.5	-0.107744	-0.195966	0
19860.2	-0.107705	-0.195971	0